ACCELEROMETER X (m/s²),ACCELEROMETER Y (m/s²),ACCELEROMETER Z (m/s²),GYROSCOPE X (rad/s),GYROSCOPE Y (rad/s),GYROSCOPE Z (rad/s),Time since start in ms ,YYYY-MO-DD HH-MI-SS_SSS
-3.65535,2.15358,8.97826,0.19707,0.16964,0.14541,9,2016-04-03 23:58:59:154
-3.65535,2.15358,8.97826,0.19707,0.16964,0.14541,110,2016-04-03 23:58:59:255
-3.76548,2.24456,8.70412,-0.13342,-0.0791,-0.05699,210,2016-04-03 23:58:59:355
-3.69964,2.20745,8.66581,0.00719,0.01678,-0.04048,309,2016-04-03 23:58:59:454
-3.67749,2.23559,8.31506,-0.53663,-0.70334,-0.05593,410,2016-04-03 23:58:59:555
-2.41455,1.20129,9.98861,-0.99389,-1.09403,0.04447,509,2016-04-03 23:58:59:654
-1.92614,0.51595,9.35115,0.27883,0.33982,0.40027,610,2016-04-03 23:58:59:755
-1.92614,0.51595,9.35115,0.27883,0.33982,0.40027,710,2016-04-03 23:58:59:855
-3.70922,1.94469,8.15286,-0.22051,-0.4341,-0.34808,809,2016-04-03 23:58:59:954
-1.57,0.89304,10.55783,0.74355,-1.52679,-0.28576,909,2016-04-03 23:59:00:054
-3.81456,3.31537,8.99142,-0.65887,2.09591,-1.56248,1009,2016-04-03 23:59:00:154
-4.35864,-0.54528,9.32063,-0.02876,0.67884,-0.10413,1109,2016-04-03 23:59:00:254
-2.26252,1.48321,8.78253,0.44182,-1.41387,0.35047,1209,2016-04-03 23:59:00:354
-2.26252,1.48321,8.78253,0.44182,-1.41387,0.35047,1309,2016-04-03 23:59:00:454
-0.9517,1.6496,9.38886,0.23889,0.0735,0.45167,1409,2016-04-03 23:59:00:554
-1.74896,0.87209,9.81802,0.46605,-0.0237,-0.05273,1509,2016-04-03 23:59:00:654
-1.24977,2.26252,9.90062,0.07563,-0.23649,0.1273,1609,2016-04-03 23:59:00:754
-1.14263,2.6438,9.05786,-0.03116,0.48017,0.19281,1709,2016-04-03 23:59:00:854
-1.89381,2.6013,8.56765,-0.13103,0.47724,0.24874,1810,2016-04-03 23:59:00:955
-1.89381,2.6013,8.56765,-0.13103,0.47724,0.24874,1909,2016-04-03 23:59:01:054
-1.83575,2.10091,9.76954,0.01252,-0.17257,0.13715,2009,2016-04-03 23:59:01:154
-1.85491,2.12665,9.57681,-0.04181,-0.20373,0.0538,2110,2016-04-03 23:59:01:255
-1.5281,2.30322,9.34876,-0.16831,-0.14754,0.08442,2209,2016-04-03 23:59:01:354
-1.16538,2.34871,9.56484,-0.00826,0.28576,0.15393,2310,2016-04-03 23:59:01:455
-1.87646,1.69569,9.38647,-0.14115,-0.32464,0.05353,2409,2016-04-03 23:59:01:554
-1.87646,1.69569,9.38647,-0.14115,-0.32464,0.05353,2509,2016-04-03 23:59:01:654
-1.66756,1.55982,9.65222,-0.79629,1.04183,0.94036,2609,2016-04-03 23:59:01:754
-2.99694,0.79727,7.97389,-0.67378,2.5609,1.25941,2710,2016-04-03 23:59:01:855
-5.68204,-0.24241,8.21391,0.59841,-0.38776,0.62931,2809,2016-04-03 23:59:01:954
-3.93726,-0.05327,9.15603,-0.4578,-1.12732,0.44182,2910,2016-04-03 23:59:02:055
-2.96402,-0.15383,9.50977,1.15075,-0.3779,1.1361,3010,2016-04-03 23:59:02:155
-2.96402,-0.15383,9.50977,1.15075,-0.3779,1.1361,3109,2016-04-03 23:59:02:254
-3.08373,1.83216,7.66444,-0.65807,0.58723,0.34088,3209,2016-04-03 23:59:02:354
-2.39719,1.97761,7.76499,0.68816,-2.11482,-0.45886,3310,2016-04-03 23:59:02:455
2.47979,4.48913,13.39735,-0.73557,-1.47166,0.42611,3409,2016-04-03 23:59:02:554
3.07655,0.82959,10.54526,2.06422,-3.18993,-1.0634,3509,2016-04-03 23:59:02:654
3.28724,2.08715,6.97551,-0.94622,0.18802,-0.17976,3609,2016-04-03 23:59:02:754
2.30801,0.34417,9.65462,-0.47191,1.17419,0.28203,3709,2016-04-03 23:59:02:854
2.30801,0.34417,9.65462,-0.47191,1.17419,0.28203,3809,2016-04-03 23:59:02:954
2.24516,0.01856,9.8695,-0.71985,-0.17603,0.23303,3909,2016-04-03 23:59:03:054
2.12007,-0.11193,10.02512,-0.07697,0.09827,-0.08895,4010,2016-04-03 23:59:03:155
2.03747,-0.05088,9.36851,-0.02397,-0.12943,-0.07537,4109,2016-04-03 23:59:03:254
2.41336,-0.5387,10.17476,0.10093,-0.11052,-0.22051,4209,2016-04-03 23:59:03:354
2.30382,0.38008,9.37749,0.56752,0.00186,-0.43276,4309,2016-04-03 23:59:03:454
2.30382,0.38008,9.37749,0.56752,0.00186,-0.43276,4409,2016-04-03 23:59:03:554
1.79625,0.662,9.52593,0.0735,0.04021,-0.33556,4509,2016-04-03 23:59:03:654
2.30861,-0.23403,9.81383,-0.14461,0.30387,-0.19281,4609,2016-04-03 23:59:03:754
4.1695,-2.2302,10.00537,-0.97152,-1.68205,-1.68978,4709,2016-04-03 23:59:03:854
0.33519,-0.35195,11.78905,-3.34892,1.43358,-3.39899,4809,2016-04-03 23:59:03:954
4.65972,-0.90142,8.22947,-0.16911,-0.99336,-0.93397,4909,2016-04-03 23:59:04:054
4.65972,-0.90142,8.22947,-0.16911,-0.99336,-0.93397,5009,2016-04-03 23:59:04:154
5.50547,-2.20446,8.37791,0.04314,0.01491,-0.92651,5110,2016-04-03 23:59:04:255
3.53205,-0.15981,9.11892,0.65514,0.53796,-0.39255,5209,2016-04-03 23:59:04:354
5.02423,-0.05327,7.95055,0.5851,0.21625,-0.56512,5309,2016-04-03 23:59:04:454
3.52307,1.40719,8.87171,0.35899,0.82451,-0.5558,5409,2016-04-03 23:59:04:554
1.96265,2.20147,10.57579,0.80427,0.50227,0.32837,5509,2016-04-03 23:59:04:654
1.96265,2.20147,10.57579,0.80427,0.50227,0.32837,5609,2016-04-03 23:59:04:754
3.48297,2.17573,7.56149,0.89562,-1.50628,0.58989,5709,2016-04-03 23:59:04:854
4.92368,3.52606,8.08881,-0.0759,-1.63225,0.09987,5809,2016-04-03 23:59:04:954
4.19584,5.5749,5.73232,0.27031,0.61918,-0.07697,5909,2016-04-03 23:59:05:054
2.24157,5.63416,7.36157,0.18189,1.28897,-0.29108,6009,2016-04-03 23:59:05:154
0.64344,3.45124,4.86621,0.53423,3.37769,-1.60296,6109,2016-04-03 23:59:05:254
0.64344,3.45124,4.86621,0.53423,3.37769,-1.60296,6209,2016-04-03 23:59:05:354
-2.13922,6.87256,10.66378,-1.00108,0.14328,-1.32466,6310,2016-04-03 23:59:05:455
-1.44969,2.75094,9.76056,-0.93903,0.77232,0.73876,6410,2016-04-03 23:59:05:555
0.23583,4.20063,9.31165,0.03036,-0.55873,1.11666,6509,2016-04-03 23:59:05:654
-0.40941,2.49476,9.69592,-0.45806,-0.15819,0.29455,6610,2016-04-03 23:59:05:755
1.21206,2.09912,10.24898,-0.10946,-0.54941,0.28309,6712,2016-04-03 23:59:05:857
1.21206,2.09912,10.24898,-0.10946,-0.54941,0.28309,6810,2016-04-03 23:59:05:955
1.30843,2.58574,8.43956,-0.10972,-0.20453,0.26925,6910,2016-04-03 23:59:06:055
1.86927,1.56581,10.09276,-0.1273,0.28895,0.26578,7009,2016-04-03 23:59:06:154
0.97743,0.9918,9.37689,0.15872,0.19015,0.05673,7109,2016-04-03 23:59:06:254
0.66319,2.12605,10.33637,-0.21731,-0.56992,-0.19201,7210,2016-04-03 23:59:06:355
2.43191,1.78907,8.58501,-0.17737,-0.60347,0.16645,7309,2016-04-03 23:59:06:454
2.43191,1.78907,8.58501,-0.17737,-0.60347,0.16645,7410,2016-04-03 23:59:06:555
2.57856,0.59795,9.44513,-0.35047,0.16059,0.06045,7510,2016-04-03 23:59:06:655
0.17059,2.17154,9.05308,0.17337,0.81466,0.11212,7609,2016-04-03 23:59:06:754
-0.01496,2.07697,9.13987,-0.1012,0.67405,0.2554,7709,2016-04-03 23:59:06:854
0.16221,1.55743,9.77732,0.00107,0.18323,0.11052,7810,2016-04-03 23:59:06:955
0.27473,0.75896,9.54927,-0.18988,-0.0522,0.00905,7909,2016-04-03 23:59:07:054
0.27473,0.75896,9.54927,-0.18988,-0.0522,0.00905,8009,2016-04-03 23:59:07:154
1.1995,0.19273,10.74817,-0.08762,-0.11691,-0.13236,8109,2016-04-03 23:59:07:254
0.72664,1.25696,8.9615,0.22131,-0.1992,-0.39761,8209,2016-04-03 23:59:07:354
0.59256,2.04884,10.0341,0.17817,0.1534,-0.13076,8310,2016-04-03 23:59:07:455
0.48961,2.09493,10.30165,0.12464,0.06418,-0.06205,8409,2016-04-03 23:59:07:554
0.63327,2.21344,9.10635,-0.02237,0.14168,0.13955,8509,2016-04-03 23:59:07:654
0.63327,2.21344,9.10635,-0.02237,0.14168,0.13955,8610,2016-04-03 23:59:07:755
0.14664,0.81642,9.72046,0.06099,0.4791,0.06764,8709,2016-04-03 23:59:07:854
-0.57281,1.42515,9.56184,-0.04341,0.15287,-0.08229,8809,2016-04-03 23:59:07:954
-0.48303,1.81181,9.3739,0.06764,0.07617,-0.155,8910,2016-04-03 23:59:08:055
0.11372,1.45029,9.85932,-0.04421,-0.08442,-0.11798,9009,2016-04-03 23:59:08:154
-0.43634,1.94708,9.77612,0.14674,-0.13822,-0.09428,9109,2016-04-03 23:59:08:254
-0.43634,1.94708,9.77612,0.14674,-0.13822,-0.09428,9210,2016-04-03 23:59:08:355
-0.18555,1.96325,9.30327,0.17364,-0.16751,-0.25407,9309,2016-04-03 23:59:08:454
0.05926,2.34213,9.44094,0.03063,-0.15446,-0.13156,9409,2016-04-03 23:59:08:554
0.15682,-0.1257,4.39935,0.00133,-1.02132,-0.74276,9509,2016-04-03 23:59:08:654
-0.38966,1.7352,10.87626,0.89749,-1.60322,-2.68367,9609,2016-04-03 23:59:08:754
4.36403,2.79224,10.45847,1.2184,-0.61972,-1.17605,9709,2016-04-03 23:59:08:854
4.36403,2.79224,10.45847,1.2184,-0.61972,-1.17605,9809,2016-04-03 23:59:08:954
0.24062,4.76805,4.92727,1.35981,-0.84555,-1.24876,9909,2016-04-03 23:59:09:054
1.07739,6.23809,6.39551,0.41386,-0.65407,-1.7441,10009,2016-04-03 23:59:09:154
-1.1558,5.54018,6.73728,-1.36727,-1.71108,-0.29934,10110,2016-04-03 23:59:09:255
1.87885,2.25594,9.48583,-1.96461,1.32918,-1.42452,10210,2016-04-03 23:59:09:355
-1.68432,2.33973,9.52832,-0.58563,-1.01759,0.42637,10310,2016-04-03 23:59:09:455
-1.68432,2.33973,9.52832,-0.58563,-1.01759,0.42637,10409,2016-04-03 23:59:09:554
0.33399,1.62566,10.14543,-1.40056,1.48152,0.13422,10509,2016-04-03 23:59:09:654
3.03944,-0.55845,13.05199,-0.29748,-1.08657,0.1281,10609,2016-04-03 23:59:09:754
1.38026,0.36751,10.21785,0.759,-2.19897,-0.57258,10710,2016-04-03 23:59:09:855
0.64643,0.27653,10.47344,0.66872,-2.71483,-0.64475,10809,2016-04-03 23:59:09:954
8.67539,3.43748,7.16525,0.87112,-1.06766,0.41119,10914,2016-04-03 23:59:10:059
7.55909,1.93332,6.96832,-0.95341,-0.09534,1.02132,11010,2016-04-03 23:59:10:155
7.55909,1.93332,6.96832,-0.95341,-0.09534,1.02132,11109,2016-04-03 23:59:10:254
6.20398,1.05046,3.52307,0.16538,0.66712,0.24634,11209,2016-04-03 23:59:10:354
7.3502,0.98821,6.1094,-0.09507,1.31747,0.28975,11309,2016-04-03 23:59:10:454
6.94917,0.97264,7.70813,-0.05113,1.76115,0.53237,11409,2016-04-03 23:59:10:554
6.19979,0.4555,7.94695,-0.05113,1.76115,0.53237,11509,2016-04-03 23:59:10:654
6.19979,0.4555,7.94695,-0.05113,1.76115,0.53237,11609,2016-04-03 23:59:10:754
6.19979,0.4555,7.94695,-0.05113,1.76115,0.53237,11709,2016-04-03 23:59:10:854
6.19979,0.4555,7.94695,-0.05113,1.76115,0.53237,11809,2016-04-03 23:59:10:954
6.19979,0.4555,7.94695,-0.05113,1.76115,0.53237,11909,2016-04-03 23:59:11:054
3.99113,0.02095,9.14166,-0.58243,1.19949,-0.36112,12009,2016-04-03 23:59:11:154
0.42916,-1.80762,9.75817,-0.58243,1.19949,-0.36112,12109,2016-04-03 23:59:11:254
0.89783,-2.0213,8.31446,-0.19468,-0.15073,-0.08256,12209,2016-04-03 23:59:11:354
0.89783,-2.0213,8.31446,0.47351,-1.15448,-0.05646,12310,2016-04-03 23:59:11:455
5.95258,0.97504,9.15603,-0.18269,0.58962,0.0269,12409,2016-04-03 23:59:11:554
0.31843,-0.84994,8.06128,0.09561,1.00774,0.31985,12510,2016-04-03 23:59:11:655
-1.98779,-1.1145,9.77972,0.09561,1.00774,0.31985,12610,2016-04-03 23:59:11:755
-0.97803,-2.45106,8.37911,-0.28336,1.40588,0.05486,12710,2016-04-03 23:59:11:855
-1.3629,-1.64422,7.2281,0.05513,0.21705,0.23196,12809,2016-04-03 23:59:11:954
-1.3629,-1.64422,7.2281,0.27431,-1.73132,-0.15233,12910,2016-04-03 23:59:12:055
3.11007,-2.01652,15.45697,0.37071,0.89615,-0.4032,13009,2016-04-03 23:59:12:154
-0.51655,0.81582,7.83862,-0.50973,-0.98244,-0.08709,13109,2016-04-03 23:59:12:254
1.20668,-1.63584,8.51498,-0.50973,-0.98244,-0.08709,13210,2016-04-03 23:59:12:355
1.29407,-1.31861,9.67796,0.29055,-0.49402,-0.09268,13309,2016-04-03 23:59:12:454
0.89603,-1.30963,8.9178,-0.23622,0.32704,-0.03675,13410,2016-04-03 23:59:12:555
0.89603,-1.30963,8.9178,0.3771,0.00133,-0.0277,13509,2016-04-03 23:59:12:654
0.86969,-0.47226,10.70507,-0.07297,-0.4775,-0.03888,13609,2016-04-03 23:59:12:754
1.80164,-0.79787,9.69233,-0.0229,-0.20826,-0.03675,13709,2016-04-03 23:59:12:854
2.1476,-0.59556,9.52832,-0.0229,-0.20826,-0.03675,13809,2016-04-03 23:59:12:954
1.75136,-1.54127,9.25658,-0.12037,0.4309,-0.01571,13910,2016-04-03 23:59:13:055
1.34075,-1.00796,9.67617,-0.04048,0.17444,-0.11159,14009,2016-04-03 23:59:13:154
1.34075,-1.00796,9.67617,0.06658,0.21412,0.04394,14110,2016-04-03 23:59:13:255
1.4461,-1.26833,9.45231,0.05965,0.18323,-0.00772,14211,2016-04-03 23:59:13:356
1.0343,-0.5357,9.91379,-0.35926,-0.29188,-0.02903,14310,2016-04-03 23:59:13:455
1.28329,-1.14383,9.69412,-0.35926,-0.29188,-0.02903,14409,2016-04-03 23:59:13:554
1.24798,-1.67295,9.38168,-0.01039,-0.00932,-0.01545,14510,2016-04-03 23:59:13:655
0.96007,-0.88526,9.76475,0.04208,0.09854,0.05673,14609,2016-04-03 23:59:13:754
0.96007,-0.88526,9.76475,-0.03302,-0.02503,-0.00852,14709,2016-04-03 23:59:13:854
0.91818,-1.01155,9.58998,0.00346,-0.00826,-0.04341,14810,2016-04-03 23:59:13:955
0.99599,-1.08098,9.47625,0.09774,-0.01465,-0.02663,14909,2016-04-03 23:59:14:054
0.89244,-1.1558,10.12867,0.09774,-0.01465,-0.02663,15009,2016-04-03 23:59:14:154
1.12408,-0.95888,9.75577,-0.06498,-0.07111,-0.00879,15109,2016-04-03 23:59:14:254
1.22583,-1.08996,9.59835,0.01864,-0.03462,0.00266,15209,2016-04-03 23:59:14:354
1.22583,-1.08996,9.59835,-0.01784,-0.08815,-0.02237,15310,2016-04-03 23:59:14:455
1.43233,-1.07978,9.64325,-0.03249,0.03675,-0.01625,15409,2016-04-03 23:59:14:554
1.43293,-0.78709,9.52294,-0.07137,-0.07883,-0.0514,15509,2016-04-03 23:59:14:654
1.68193,-1.27791,9.60673,-0.07137,-0.07883,-0.0514,15610,2016-04-03 23:59:14:755
1.32998,-0.93972,9.69532,-0.10333,0.102,-0.03515,15710,2016-04-03 23:59:14:855
1.07739,-1.12647,10.72243,-0.03489,0.07883,0.05699,15810,2016-04-03 23:59:14:955
1.07739,-1.12647,10.72243,-1.19816,0.10386,-0.03222,15910,2016-04-03 23:59:15:055
0.88406,-0.91578,9.93115,-0.81439,-0.1518,0.24315,16009,2016-04-03 23:59:15:154
1.09894,-4.95839,10.12328,-0.64209,-0.28895,0.18109,16109,2016-04-03 23:59:15:254
1.09894,-4.95839,10.12328,-0.64209,-0.28895,0.18109,16209,2016-04-03 23:59:15:354
1.18752,-4.78242,8.44674,0.72545,0.42344,-0.26951,16309,2016-04-03 23:59:15:454
0.99958,-0.01137,9.92995,1.42745,-0.23196,-0.41625,16409,2016-04-03 23:59:15:554
1.50416,-0.91818,8.88069,-0.27138,0.61226,-0.03995,16509,2016-04-03 23:59:15:654
1.21506,-0.44293,9.86291,0.28469,0.0506,-0.05859,16609,2016-04-03 23:59:15:754
-0.02933,-2.04525,8.73465,-0.55314,-0.85461,-0.3036,16710,2016-04-03 23:59:15:855
-0.02933,-2.04525,8.73465,-0.55314,-0.85461,-0.3036,16809,2016-04-03 23:59:15:954
1.11091,-0.56683,10.4471,0.29268,-0.17737,0.52864,16910,2016-04-03 23:59:16:055
4.66151,-3.10827,8.80947,0.70201,-0.05886,-4.41872,17010,2016-04-03 23:59:16:155
0.35075,1.02771,10.32799,1.17499,0.15979,-4.40593,17110,2016-04-03 23:59:16:255
-4.53881,4.79319,9.14465,0.82079,0.3036,1.55688,17210,2016-04-03 23:59:16:355
1.79326,2.63242,8.03853,1.80669,2.03998,2.76676,17310,2016-04-03 23:59:16:455
1.79326,2.63242,8.03853,1.80669,2.03998,2.76676,17409,2016-04-03 23:59:16:554
-0.29568,3.52367,7.53874,0.23116,1.68578,3.86478,17509,2016-04-03 23:59:16:654
3.37104,6.06751,6.64391,-0.79149,-0.20719,1.11054,17609,2016-04-03 23:59:16:754
-0.56383,3.25432,8.0529,-0.37737,-1.42053,0.21518,17709,2016-04-03 23:59:16:854
7.07786,2.11408,9.82281,1.48471,-1.62107,1.57925,17810,2016-04-03 23:59:16:955
4.72675,6.12497,7.03416,0.86713,-0.14088,-3.19366,17910,2016-04-03 23:59:17:055
4.72675,6.12497,7.03416,0.86713,-0.14088,-3.19366,18009,2016-04-03 23:59:17:154
2.17453,9.21708,5.98311,0.66952,0.49934,-0.457,18111,2016-04-03 23:59:17:256
2.46304,7.71831,5.97174,-0.02423,0.14994,0.30866,18209,2016-04-03 23:59:17:354
2.33794,8.10018,6.47272,-0.03915,0.07324,0.07031,18309,2016-04-03 23:59:17:454
2.33794,8.10018,6.47272,-0.03915,0.07324,0.07031,18409,2016-04-03 23:59:17:554
2.33794,8.10018,6.47272,-0.03915,0.07324,0.07031,18509,2016-04-03 23:59:17:654
2.91374,5.29717,5.22894,0.69668,0.49535,-0.26898,18610,2016-04-03 23:59:17:755
1.63763,8.27436,5.7796,0.05726,0.00186,-0.04794,18709,2016-04-03 23:59:17:854
1.6526,8.23605,5.14694,-0.11425,-0.0253,0.04181,18810,2016-04-03 23:59:17:955
1.68731,7.83742,6.0286,-0.11425,-0.0253,0.04181,18910,2016-04-03 23:59:18:055
2.04944,8.00322,5.04099,0.10892,-0.07031,-0.00932,19011,2016-04-03 23:59:18:156
1.78847,8.14747,5.26425,0.01917,-0.0221,-0.04314,19109,2016-04-03 23:59:18:254
1.91596,8.08462,5.40431,-0.06072,-0.02823,0.01944,19210,2016-04-03 23:59:18:355
1.97103,8.07864,5.48272,-0.06072,-0.02823,0.01944,19310,2016-04-03 23:59:18:455
1.86748,8.15166,5.57071,-0.01731,0.06099,-0.07643,19410,2016-04-03 23:59:18:555
1.86748,8.15166,5.57071,-0.03356,0.00692,-0.03196,19509,2016-04-03 23:59:18:654
1.8585,8.07026,5.38336,-0.01385,-0.02184,-0.01332,19609,2016-04-03 23:59:18:754
1.86089,8.20792,5.52283,0.11185,-0.04501,-0.0269,19710,2016-04-03 23:59:18:855
1.82857,8.16902,5.26066,0.04953,-0.00666,-0.03462,19810,2016-04-03 23:59:18:955
1.95726,8.19835,5.19003,0.04953,-0.00666,-0.03462,19910,2016-04-03 23:59:19:055
1.91716,8.11754,5.16908,-0.01997,-0.00107,-0.02131,20009,2016-04-03 23:59:19:154
1.90758,8.23725,5.32291,-0.01438,-0.00133,-0.02104,20109,2016-04-03 23:59:19:254
1.90758,8.23725,5.32291,-0.06631,-0.00266,-0.01518,20209,2016-04-03 23:59:19:354
1.901,8.15226,5.31214,-0.04261,-0.00293,-0.01385,20309,2016-04-03 23:59:19:454
1.96265,8.08881,5.33249,-0.04261,-0.00293,-0.01385,20409,2016-04-03 23:59:19:554
1.93272,8.12832,5.31513,-0.01758,0.00613,-0.02637,20510,2016-04-03 23:59:19:655
1.94708,8.10796,5.36481,-0.02743,-0.00399,-0.01731,20611,2016-04-03 23:59:19:756
1.9387,8.1325,5.30196,-8.0E-4,-0.00107,-0.02264,20710,2016-04-03 23:59:19:855
1.9387,8.1325,5.30196,-0.02823,-5.3E-4,-0.01305,20810,2016-04-03 23:59:19:955
1.91776,8.1343,5.55096,-0.01864,0.00559,-0.03409,20910,2016-04-03 23:59:20:055
1.93272,8.05469,5.39234,-0.02956,-0.01545,-0.01598,21011,2016-04-03 23:59:20:156
1.97641,8.08402,5.40431,-0.02956,-0.01545,-0.01598,21110,2016-04-03 23:59:20:255
1.90878,8.09599,5.37438,-0.01411,2.7E-4,-0.0277,21209,2016-04-03 23:59:20:354
1.9417,8.11156,5.36361,0.02104,-0.00719,-0.02663,21309,2016-04-03 23:59:20:454
1.9417,8.11156,5.36361,-0.00692,-0.0024,-0.02317,21409,2016-04-03 23:59:20:554
1.94409,8.07744,5.40072,0.02423,-0.00985,-0.0261,21510,2016-04-03 23:59:20:655
1.96504,8.10557,5.3265,0.02264,-0.00586,-0.02876,21610,2016-04-03 23:59:20:755
1.92673,8.10737,5.45878,0.02264,-0.00586,-0.02876,21709,2016-04-03 23:59:20:854
2.00514,8.09599,5.18824,0.08389,0.00879,-0.04714,21809,2016-04-03 23:59:20:954
1.92554,8.19775,5.22834,-0.01092,-0.00453,-0.02344,21914,2016-04-03 23:59:21:059
1.92554,8.19775,5.22834,0.00399,0.01997,-0.04155,22010,2016-04-03 23:59:21:155
1.84473,8.29411,4.95001,-0.24395,-0.04021,0.05193,22110,2016-04-03 23:59:21:255
1.9004,7.93678,5.64613,0.09241,-0.01598,-0.01598,22210,2016-04-03 23:59:21:355
1.96744,8.0116,5.20021,0.09241,-0.01598,-0.01598,22309,2016-04-03 23:59:21:454
1.92135,8.11515,5.25228,-0.00719,0.02823,-0.06471,22410,2016-04-03 23:59:21:555
1.98539,7.91942,5.31513,-0.09454,-0.00799,-8.0E-4,22510,2016-04-03 23:59:21:655
1.98539,7.91942,5.31513,-0.06525,0.02823,-0.04234,22609,2016-04-03 23:59:21:754
1.94289,8.14567,5.62338,-0.07004,0.00479,-0.02637,22710,2016-04-03 23:59:21:855
1.9836,7.84041,5.5342,0.07697,0.01305,-0.07137,22810,2016-04-03 23:59:21:955
1.72263,8.11934,5.50367,0.07697,0.01305,-0.07137,22910,2016-04-03 23:59:22:055
1.71545,7.95294,5.33727,0.01198,-0.00533,-0.04048,23009,2016-04-03 23:59:22:154
1.68672,8.10437,5.2852,0.00932,0.00826,-0.0482,23110,2016-04-03 23:59:22:255
1.68672,8.10437,5.2852,-0.00852,0.02423,-0.05246,23209,2016-04-03 23:59:22:354
1.52092,8.16423,5.25886,-0.14061,-0.02237,0.0237,23309,2016-04-03 23:59:22:454
1.76872,8.02417,5.59286,0.09401,-0.02983,0.00346,23410,2016-04-03 23:59:22:555
1.56461,8.08702,5.34326,0.09401,-0.02983,0.00346,23510,2016-04-03 23:59:22:655
1.80583,8.10737,5.22355,0.06312,-0.03089,0.00346,23609,2016-04-03 23:59:22:754
1.87765,8.0116,5.54617,-0.03329,-0.00826,0.01678,23709,2016-04-03 23:59:22:854
1.87765,8.0116,5.54617,0.07404,0.00799,-0.02157,23809,2016-04-03 23:59:22:954
1.91776,8.14807,5.35463,-0.01039,-0.00719,-0.0277,23909,2016-04-03 23:59:23:054
1.81002,8.12053,5.29358,-0.01039,-0.00719,-0.0277,24009,2016-04-03 23:59:23:154
1.83396,8.0942,5.52342,-0.03728,-0.00666,-0.01917,24110,2016-04-03 23:59:23:255
1.85251,8.10737,5.42287,-0.00959,0.0,-0.02157,24209,2016-04-03 23:59:23:354
1.80164,8.07624,5.38815,-0.02317,-0.00613,-0.00692,24309,2016-04-03 23:59:23:454
1.80164,8.07624,5.38815,-0.02317,-0.00613,-0.00692,24409,2016-04-03 23:59:23:554
1.89142,8.08582,5.47973,0.00879,0.01625,-0.02104,24509,2016-04-03 23:59:23:654
1.82917,8.11874,5.33488,0.02077,2.7E-4,-0.03356,24609,2016-04-03 23:59:23:754
1.91895,8.12891,5.38276,-8.0E-4,0.00107,-0.03435,24709,2016-04-03 23:59:23:854
1.98419,8.06607,5.35104,-5.3E-4,-0.0024,-0.01917,24809,2016-04-03 23:59:23:954
1.82318,8.16543,5.34925,-0.00826,-0.0032,-0.0269,24909,2016-04-03 23:59:24:054
1.82318,8.16543,5.34925,-0.00826,-0.0032,-0.0269,25009,2016-04-03 23:59:24:154
1.87825,8.06068,5.3283,-0.01891,-0.02503,-0.00559,25109,2016-04-03 23:59:24:254
1.90878,8.15046,5.3271,0.0,0.00293,-0.01811,25210,2016-04-03 23:59:24:355
1.94888,8.11215,5.31333,0.01944,5.3E-4,-0.02557,25309,2016-04-03 23:59:24:454
1.91416,8.17141,5.23732,-0.00186,-0.00586,-0.02557,25409,2016-04-03 23:59:24:554
1.8986,8.15764,5.29717,-0.0474,0.00266,-0.02876,25509,2016-04-03 23:59:24:654
1.8986,8.15764,5.29717,-0.0474,0.00266,-0.02876,25610,2016-04-03 23:59:24:755
1.90818,8.14926,5.52522,-0.00852,-0.00453,-0.02503,25710,2016-04-03 23:59:24:855
1.87586,8.14567,5.31692,-0.00692,2.7E-4,-0.03276,25809,2016-04-03 23:59:24:954
1.90219,8.08163,5.3672,-0.01731,-0.00426,-0.01465,25910,2016-04-03 23:59:25:055
1.83635,8.12173,5.24929,-5.3E-4,-2.7E-4,-0.03116,26009,2016-04-03 23:59:25:154
1.87167,8.10138,5.28041,-0.02557,0.00133,-0.0269,26109,2016-04-03 23:59:25:254
1.87167,8.10138,5.28041,-0.02557,0.00133,-0.0269,26209,2016-04-03 23:59:25:354
1.92374,8.13969,5.36541,-0.0285,0.00692,-0.03036,26310,2016-04-03 23:59:25:455
1.88663,8.12951,5.3271,-0.0221,-0.0024,-0.0277,26410,2016-04-03 23:59:25:555
1.92973,8.05829,5.39773,-0.02583,-0.0024,-0.02051,26510,2016-04-03 23:59:25:655
1.89441,8.11634,5.41329,-0.02131,0.00293,-0.0237,26609,2016-04-03 23:59:25:754
1.89022,8.06966,5.45339,-0.00586,-0.00799,-0.02264,26711,2016-04-03 23:59:25:856
1.89022,8.06966,5.45339,-0.00586,-0.00799,-0.02264,26810,2016-04-03 23:59:25:955
1.90818,8.07564,5.40132,0.00293,-0.00826,-0.02423,26910,2016-04-03 23:59:26:055
1.87406,8.10078,5.37438,-0.00879,-0.01198,-0.01784,27010,2016-04-03 23:59:26:155
1.93392,8.08582,5.37738,0.00692,0.00586,-0.02237,27110,2016-04-03 23:59:26:255
1.87765,8.04991,5.21218,0.01997,0.00586,-0.0277,27209,2016-04-03 23:59:26:354
1.82558,8.07325,5.31752,-0.00506,-0.00719,-0.0253,27311,2016-04-03 23:59:26:456
1.82558,8.07325,5.31752,-0.00506,-0.00719,-0.0253,27410,2016-04-03 23:59:26:555
1.88424,8.10677,5.3696,0.00133,-0.00826,-0.02237,27509,2016-04-03 23:59:26:654
1.92374,8.07085,5.37798,0.01198,-0.00826,-0.01758,27609,2016-04-03 23:59:26:754
1.8992,8.10437,5.31393,0.04261,0.00586,-0.0285,27709,2016-04-03 23:59:26:854
1.85491,8.20732,5.30196,0.01971,0.00293,-0.02876,27810,2016-04-03 23:59:26:955
1.90399,8.09779,5.29657,-0.00373,-0.00133,-0.03143,27909,2016-04-03 23:59:27:054
1.90399,8.09779,5.29657,-0.00373,-0.00133,-0.03143,28010,2016-04-03 23:59:27:155
1.89262,8.10078,5.24629,0.01571,0.00293,-0.0277,28109,2016-04-03 23:59:27:254
1.98,8.25521,5.12958,0.01012,-0.01225,-0.02024,28210,2016-04-03 23:59:27:355
1.85491,8.1349,5.22056,-0.02317,-0.00213,-0.02184,28309,2016-04-03 23:59:27:454
1.91117,8.13131,5.26425,-0.03489,0.00133,-0.0237,28411,2016-04-03 23:59:27:556
1.86748,8.1762,5.32051,-0.01545,-0.00107,-0.02423,28509,2016-04-03 23:59:27:654
1.86748,8.1762,5.32051,-0.01545,-0.00107,-0.02423,28609,2016-04-03 23:59:27:754
1.86628,8.11934,5.21278,-0.02104,-0.0032,-0.02477,28710,2016-04-03 23:59:27:855
1.90878,8.14926,5.35104,-0.03329,5.3E-4,-0.02423,28810,2016-04-03 23:59:27:955
1.89381,8.20792,5.29238,-0.03489,-0.00985,-0.0024,28909,2016-04-03 23:59:28:054
1.95546,8.09659,5.29717,0.01625,-0.00213,-0.01465,29011,2016-04-03 23:59:28:156
1.8585,8.1349,5.38875,-0.07057,0.0,-0.0229,29109,2016-04-03 23:59:28:254
2.00754,8.1349,5.4923,0.03382,-0.00959,-0.00692,29209,2016-04-03 23:59:28:354
2.00754,8.1349,5.4923,0.03382,-0.00959,-0.00692,29309,2016-04-03 23:59:28:454
1.96803,8.12173,5.41149,-0.02477,8.0E-4,-0.02663,29409,2016-04-03 23:59:28:554
1.88184,8.10078,5.4516,-0.02663,8.0E-4,-0.01917,29511,2016-04-03 23:59:28:656
1.95187,8.08642,5.51923,0.01065,5.3E-4,-0.0016,29610,2016-04-03 23:59:28:755
1.8567,8.05529,5.23432,0.08309,-0.00586,-0.03356,29710,2016-04-03 23:59:28:855
1.97103,8.10497,5.33608,0.02743,-0.00879,-0.03862,29809,2016-04-03 23:59:28:954
1.97103,8.10497,5.33608,0.02743,-0.00879,-0.03862,29909,2016-04-03 23:59:29:054
1.98838,8.14088,5.33787,0.02503,0.01731,-0.01917,30010,2016-04-03 23:59:29:155
1.89621,8.16543,5.25348,0.00559,0.00133,-0.02024,30109,2016-04-03 23:59:29:254
1.91596,8.11395,5.34206,0.01305,-2.7E-4,-0.03595,30209,2016-04-03 23:59:29:354
1.76153,8.22109,5.06733,-0.29215,0.02796,-0.01731,30309,2016-04-03 23:59:29:454
2.04106,7.73866,5.46417,0.11159,-0.00879,-0.03755,30409,2016-04-03 23:59:29:554
2.04106,7.73866,5.46417,0.11159,-0.00879,-0.03755,30510,2016-04-03 23:59:29:655
2.09612,8.04751,5.38935,0.22584,-0.11931,-0.0514,30609,2016-04-03 23:59:29:754
1.87227,8.2163,5.13197,-0.07111,-0.04128,-0.00719,30709,2016-04-03 23:59:29:854
2.26372,7.88351,5.21936,-0.07856,-0.01411,0.02024,30809,2016-04-03 23:59:29:954
2.11887,8.13011,5.41329,-0.07776,-0.01997,0.01545,30910,2016-04-03 23:59:30:055
2.26192,7.74824,5.5342,-0.34781,-0.48789,-0.03169,31010,2016-04-03 23:59:30:155
2.26192,7.74824,5.5342,-0.34781,-0.48789,-0.03169,31110,2016-04-03 23:59:30:255
2.63242,7.4328,5.27203,-0.08389,-0.09561,-0.01997,31210,2016-04-03 23:59:30:355
2.806,7.62134,5.99388,0.02344,-0.00666,-0.06844,31310,2016-04-03 23:59:30:455
1.70707,8.5078,5.84365,0.87858,0.33156,-0.7329,31409,2016-04-03 23:59:30:554
2.44747,8.37252,4.96019,-0.2823,-0.29002,0.46392,31509,2016-04-03 23:59:30:654
2.44747,8.37252,4.96019,-0.2823,-0.29002,0.46392,31609,2016-04-03 23:59:30:754
2.03088,8.12592,4.68785,-0.33636,0.34887,0.00985,31709,2016-04-03 23:59:30:854
1.82318,8.02477,4.49152,-0.01119,0.08282,-0.15633,31811,2016-04-03 23:59:30:956
1.45388,8.00801,4.74411,-0.19974,-0.09348,-0.00586,31909,2016-04-03 23:59:31:054
1.79445,8.41622,5.32351,-0.19974,-0.09348,-0.00586,32010,2016-04-03 23:59:31:155
1.85192,8.1774,5.14454,-0.09747,0.05539,-5.3E-4,32110,2016-04-03 23:59:31:255
1.83097,8.27915,5.0799,0.04874,-0.06738,-0.12863,32210,2016-04-03 23:59:31:355
1.83097,8.27915,5.0799,0.00692,-0.06152,-0.01571,32310,2016-04-03 23:59:31:455
1.67115,8.33422,5.10863,0.02477,0.00133,-0.08149,32409,2016-04-03 23:59:31:554
1.72383,8.03973,5.14275,0.02237,-0.01385,-0.13848,32510,2016-04-03 23:59:31:655
1.88903,8.18757,4.94163,0.02237,-0.01385,-0.13848,32610,2016-04-03 23:59:31:755
1.85251,8.33721,4.89315,0.16192,-0.06871,-8.0E-4,32709,2016-04-03 23:59:31:854
1.58795,8.02417,4.82611,-0.03755,-0.0221,-0.00107,32809,2016-04-03 23:59:31:954
1.58795,8.02417,4.82611,-0.12597,-0.01465,0.1004,32909,2016-04-03 23:59:32:054
1.93811,8.35397,4.9536,-0.01625,0.01172,-0.01651,33009,2016-04-03 23:59:32:154
2.12007,8.79869,5.41628,-0.18109,0.13609,0.10946,33110,2016-04-03 23:59:32:255
1.82259,7.95234,5.02483,-0.18109,0.13609,0.10946,33209,2016-04-03 23:59:32:354
2.58215,7.77218,6.38294,-0.43276,0.03036,0.19894,33310,2016-04-03 23:59:32:455
2.3529,7.81467,6.10581,-0.00586,-0.11265,-0.04927,33409,2016-04-03 23:59:32:554
2.3529,7.81467,6.10581,-0.03356,-0.05726,0.03169,33510,2016-04-03 23:59:32:655
2.06021,7.91403,5.82449,0.0032,-0.0032,-0.04128,33609,2016-04-03 23:59:32:754
2.15718,7.79971,5.53958,-0.10626,0.00879,-0.00453,33710,2016-04-03 23:59:32:855
2.0249,7.69437,5.68144,-0.10626,0.00879,-0.00453,33809,2016-04-03 23:59:32:954
2.36727,7.45554,6.04835,-0.17657,-0.03542,0.03489,33910,2016-04-03 23:59:33:055
1.93691,7.84281,5.54437,0.17817,-0.02663,-0.05886,34009,2016-04-03 23:59:33:154
1.93691,7.84281,5.54437,-0.08096,-0.00666,-0.01438,34109,2016-04-03 23:59:33:254
2.14221,7.67342,5.93223,-0.0253,2.7E-4,-0.02237,34209,2016-04-03 23:59:33:354
2.20865,7.66863,5.88734,0.01012,0.00133,-0.03196,34309,2016-04-03 23:59:33:454
2.17154,7.69377,5.83287,0.01012,0.00133,-0.03196,34410,2016-04-03 23:59:33:555
2.1488,7.71771,5.85083,0.00692,-0.00932,-0.0221,34510,2016-04-03 23:59:33:655
2.14461,7.70454,5.77721,0.02397,5.3E-4,-0.03382,34609,2016-04-03 23:59:33:754
2.14461,7.70454,5.77721,0.01864,-0.00692,-0.0245,34709,2016-04-03 23:59:33:854
2.16915,7.75183,5.77182,0.00852,-0.00879,-0.02823,34810,2016-04-03 23:59:33:955
2.16376,7.75602,5.80355,0.01545,0.0032,-0.03835,34909,2016-04-03 23:59:34:054
2.1452,7.74704,5.53899,0.01545,0.0032,-0.03835,35009,2016-04-03 23:59:34:154
2.08655,7.78475,5.70897,0.01385,-0.00293,-0.02663,35110,2016-04-03 23:59:34:255
2.13982,7.81467,5.71257,-2.7E-4,-0.00453,-0.01997,35209,2016-04-03 23:59:34:354
2.13982,7.81467,5.71257,-0.00799,-0.00506,-0.02876,35309,2016-04-03 23:59:34:454
2.14221,7.76859,5.71137,-0.01758,-0.00559,-0.0245,35410,2016-04-03 23:59:34:555
2.09134,7.81408,5.68683,-0.03702,-0.00107,-0.01891,35510,2016-04-03 23:59:34:655
2.14101,7.7638,5.74189,-0.03702,-0.00107,-0.01891,35609,2016-04-03 23:59:34:754
2.15538,7.7213,5.78619,-0.02317,0.00133,-0.0221,35709,2016-04-03 23:59:34:854
2.11827,7.73507,5.72394,-0.03249,-0.01332,-0.02423,35809,2016-04-03 23:59:34:954
2.11827,7.73507,5.72394,-0.00666,0.00293,-0.02131,35910,2016-04-03 23:59:35:055
2.19967,7.70873,5.84185,-0.00826,-0.0016,-0.02876,36010,2016-04-03 23:59:35:155
2.11947,7.71352,5.81133,-0.0253,-0.0032,-0.01678,36110,2016-04-03 23:59:35:255
2.147,7.66444,5.84305,-0.0253,-0.0032,-0.01678,36209,2016-04-03 23:59:35:354
2.14401,7.72489,5.81911,0.0,0.00107,-0.02317,36309,2016-04-03 23:59:35:454
2.15358,7.69676,5.7802,-0.01119,-0.00746,-0.02157,36410,2016-04-03 23:59:35:555
2.15358,7.69676,5.7802,-0.0253,-8.0E-4,-0.0221,36510,2016-04-03 23:59:35:655
2.13144,7.68539,5.9879,0.02796,-0.0277,-0.02264,36610,2016-04-03 23:59:35:755
2.16256,7.73507,5.81552,0.03649,-0.00799,-0.02903,36709,2016-04-03 23:59:35:854
2.09193,7.74285,5.81312,0.11425,-0.08309,0.06605,36809,2016-04-03 23:59:35:954
2.26073,7.96431,6.11,0.11425,-0.08309,0.06605,36910,2016-04-03 23:59:36:055
2.10929,7.82305,5.30854,0.00692,0.01678,-0.06365,37009,2016-04-03 23:59:36:154
2.2715,7.64109,6.18243,-0.17976,0.00453,0.01411,37109,2016-04-03 23:59:36:254
2.2715,7.64109,6.18243,0.11531,-0.01758,-0.08282,37209,2016-04-03 23:59:36:354
2.17633,7.85059,5.4917,-0.07989,-0.00799,-0.00852,37310,2016-04-03 23:59:36:455
2.17154,7.78774,5.70598,-0.05619,0.01065,-0.03302,37409,2016-04-03 23:59:36:554
2.1488,7.79971,5.88196,-0.05619,0.01065,-0.03302,37509,2016-04-03 23:59:36:654
2.05782,7.75123,5.61859,0.02104,-0.01039,-0.02823,37610,2016-04-03 23:59:36:755
2.15418,7.76559,5.81192,-0.0269,-0.00107,-0.02264,37710,2016-04-03 23:59:36:855
2.15418,7.76559,5.81192,-0.00373,-8.0E-4,-0.03089,37809,2016-04-03 23:59:36:954
2.1895,7.7207,5.71077,-0.01864,-0.00479,-0.00666,37910,2016-04-03 23:59:37:055
2.09373,7.83862,5.75865,-0.02264,8.0E-4,-0.01891,38009,2016-04-03 23:59:37:154
2.09074,7.75422,5.79217,-0.02264,8.0E-4,-0.01891,38109,2016-04-03 23:59:37:254
2.12485,7.76021,5.79636,-0.03116,2.7E-4,-0.01758,38209,2016-04-03 23:59:37:354
2.05183,7.73806,5.72514,-0.00266,-0.00746,-0.02956,38310,2016-04-03 23:59:37:455
2.05183,7.73806,5.72514,-0.01358,-0.00453,-0.02024,38410,2016-04-03 23:59:37:555
2.10929,7.76739,5.70299,-0.02344,-0.00399,-0.0221,38510,2016-04-03 23:59:37:655
2.12066,7.7213,5.80055,-0.01172,-0.01411,-0.01278,38609,2016-04-03 23:59:37:754
2.11887,7.70933,5.75985,-0.01172,-0.01411,-0.01278,38709,2016-04-03 23:59:37:854
2.16436,7.73387,5.95618,-0.01092,-0.00107,-0.03036,38809,2016-04-03 23:59:37:954
2.10331,7.75003,5.83587,-0.0277,-0.00905,-0.01278,38910,2016-04-03 23:59:38:055
2.10331,7.75003,5.83587,-0.01864,-0.00373,-0.02157,39009,2016-04-03 23:59:38:154
2.12366,7.71651,5.80235,-0.01864,-2.7E-4,-0.02397,39110,2016-04-03 23:59:38:255
2.08774,7.73686,5.89333,0.03196,-0.00453,-0.03196,39210,2016-04-03 23:59:38:355
2.10271,7.77098,5.80414,0.03196,-0.00453,-0.03196,39309,2016-04-03 23:59:38:454
2.15239,7.77996,5.78379,0.01385,-0.00586,-0.01811,39409,2016-04-03 23:59:38:554
2.12845,7.74644,5.72573,0.01678,0.00107,-0.03116,39510,2016-04-03 23:59:38:655
2.12845,7.74644,5.72573,0.01838,-0.0032,-0.0261,39610,2016-04-03 23:59:38:755
2.13204,7.7632,5.72992,0.01917,-0.00852,-0.0261,39709,2016-04-03 23:59:38:854
2.06859,7.83323,5.66887,0.01012,-0.0016,-0.02583,39810,2016-04-03 23:59:38:955
2.19788,7.79492,5.71795,0.01012,-0.0016,-0.02583,39909,2016-04-03 23:59:39:054
2.10331,7.82425,5.66887,0.0,-0.00453,-0.0277,40009,2016-04-03 23:59:39:154
2.13742,7.81647,5.68802,0.01305,-0.00293,-0.0277,40109,2016-04-03 23:59:39:254
2.13742,7.81647,5.68802,0.0237,-0.00586,-0.03249,40209,2016-04-03 23:59:39:354
2.06799,7.87094,5.56173,-0.03649,-8.0E-4,-0.01465,40310,2016-04-03 23:59:39:455
2.09373,7.90087,5.65151,-0.05433,-0.01784,-0.01571,40410,2016-04-03 23:59:39:555
2.13742,7.75781,5.66708,-0.05433,-0.01784,-0.01571,40510,2016-04-03 23:59:39:655
2.07039,7.80929,5.69521,-0.02423,-0.00613,-0.02423,40609,2016-04-03 23:59:39:754
2.10989,7.81108,5.75267,0.00959,-0.0024,-0.01944,40709,2016-04-03 23:59:39:854
2.10989,7.81108,5.75267,2.7E-4,0.01438,-0.02903,40809,2016-04-03 23:59:39:954
2.1458,7.79193,5.68384,-0.05326,-0.00533,-0.01119,40910,2016-04-03 23:59:40:055
2.14401,7.75063,5.85502,0.03169,-0.01092,-0.02796,41009,2016-04-03 23:59:40:154
2.13982,7.7638,5.63296,0.03169,-0.01092,-0.02796,41109,2016-04-03 23:59:40:254
2.09972,7.75123,5.83407,-0.04261,0.01491,-0.01917,41209,2016-04-03 23:59:40:354
2.07338,7.67102,5.66348,0.0261,-0.01838,-0.01971,41309,2016-04-03 23:59:40:454
2.07338,7.67102,5.66348,0.11425,-0.10253,0.12144,41409,2016-04-03 23:59:40:554
1.89022,6.91146,5.97473,-0.06099,0.01332,-0.04767,41509,2016-04-03 23:59:40:654
2.11228,7.63092,5.72813,0.03009,-0.01092,-0.01731,41609,2016-04-03 23:59:40:754
2.27569,7.65546,5.67965,0.03009,-0.01092,-0.01731,41709,2016-04-03 23:59:40:854
2.20985,7.73746,5.77062,-0.01305,0.00852,-0.04048,41809,2016-04-03 23:59:40:954
2.20626,7.70514,5.7407,-0.01997,-0.01119,-0.00266,41910,2016-04-03 23:59:41:055
2.20626,7.70514,5.7407,-0.00213,-0.00586,-0.02557,42010,2016-04-03 23:59:41:155
2.28407,7.77876,5.8227,0.01119,-0.01092,-0.02397,42110,2016-04-03 23:59:41:255
2.20147,7.75841,5.69221,-0.01625,-0.0032,-0.02796,42209,2016-04-03 23:59:41:354
2.26611,7.73626,5.74429,-0.01625,-0.0032,-0.02796,42309,2016-04-03 23:59:41:454
2.25294,7.78175,5.76404,0.00879,-0.00107,-0.02823,42409,2016-04-03 23:59:41:554
2.23559,7.79133,5.66229,0.03063,-0.00852,-0.0221,42509,2016-04-03 23:59:41:654
2.23559,7.79133,5.66229,0.02876,-0.01385,-0.02104,42609,2016-04-03 23:59:41:754
2.25654,7.78415,5.5743,0.04314,-0.00613,-0.0285,42710,2016-04-03 23:59:41:855
2.24935,7.81946,5.69401,0.01305,5.3E-4,-0.03515,42810,2016-04-03 23:59:41:955
2.23858,7.847,5.59824,0.01305,5.3E-4,-0.03515,42909,2016-04-03 23:59:42:054
2.24696,7.84161,5.59046,0.00479,-0.00879,-0.01411,43010,2016-04-03 23:59:42:155
2.26192,7.89308,5.5761,0.01332,0.00107,-0.03116,43109,2016-04-03 23:59:42:254
2.26192,7.89308,5.5761,0.00613,-0.00905,-0.01305,43210,2016-04-03 23:59:42:355
2.22661,7.8865,5.52582,-0.02051,-8.0E-4,-0.0237,43310,2016-04-03 23:59:42:455
2.23379,7.83024,5.51564,-0.04101,0.00266,-0.02423,43410,2016-04-03 23:59:42:555
2.25235,7.85657,5.60004,-0.04101,0.00266,-0.02423,43509,2016-04-03 23:59:42:654
2.26252,7.78475,5.62518,-0.03089,-0.00666,-0.01997,43609,2016-04-03 23:59:42:754
2.23199,7.84281,5.64972,0.00133,-0.01065,-0.01651,43710,2016-04-03 23:59:42:855
2.23199,7.84281,5.64972,-0.02423,-0.00293,-0.02397,43809,2016-04-03 23:59:42:954
2.21703,7.78175,5.72454,-0.04501,-0.01278,-0.00533,43909,2016-04-03 23:59:43:054
2.24516,7.79253,5.75327,-0.01198,-0.00586,-0.02104,44010,2016-04-03 23:59:43:155
2.33195,7.73626,5.67067,-0.00266,-0.00586,-0.02157,44110,2016-04-03 23:59:43:255
2.29245,7.74883,5.67605,-0.00266,-0.00586,-0.02157,44209,2016-04-03 23:59:43:354
2.28527,7.78834,5.71855,-0.01012,-0.00426,-0.02344,44310,2016-04-03 23:59:43:455
2.24516,7.75721,5.67546,0.01811,-0.0016,-0.03116,44410,2016-04-03 23:59:43:555
2.24516,7.75721,5.67546,0.01598,-0.00533,-0.0261,44510,2016-04-03 23:59:43:655
2.30143,7.81647,5.64613,0.02477,-0.00213,-0.03409,44609,2016-04-03 23:59:43:754
2.23858,7.87034,5.72633,-0.00932,0.00107,-0.03063,44709,2016-04-03 23:59:43:854
2.28586,7.80689,5.59046,-0.00932,0.00107,-0.03063,44810,2016-04-03 23:59:43:955
2.25833,7.86495,5.62757,-0.0032,-0.00533,-0.02104,44910,2016-04-03 23:59:44:055
2.20267,7.84939,5.60183,0.00772,-0.00852,-0.02903,45010,2016-04-03 23:59:44:155
2.20267,7.84939,5.60183,0.0016,-0.01598,-0.01811,45110,2016-04-03 23:59:44:255
2.15059,7.70813,5.56472,-0.02024,-0.01332,-0.01039,45210,2016-04-03 23:59:44:355
2.24397,7.86735,5.55455,-0.04181,5.3E-4,-0.00905,45309,2016-04-03 23:59:44:454
2.16316,7.8027,5.62757,-0.04181,5.3E-4,-0.00905,45410,2016-04-03 23:59:44:555
2.28347,7.83263,5.6174,-0.01917,-0.00399,-0.02131,45509,2016-04-03 23:59:44:654
2.2697,7.73806,5.83407,-0.0277,-2.7E-4,-0.02104,45609,2016-04-03 23:59:44:754
2.2697,7.73806,5.83407,-0.00639,0.00506,-0.0277,45710,2016-04-03 23:59:44:855
2.30981,7.78235,5.62338,-0.05779,0.0,-0.02024,45811,2016-04-03 23:59:44:956
2.27689,7.75961,5.68324,-0.05566,-0.00772,-0.00799,45912,2016-04-03 23:59:45:057
2.28886,7.73806,5.8209,-0.05566,-0.00772,-0.00799,46010,2016-04-03 23:59:45:155
2.30322,7.70813,5.73052,-0.00506,-0.00346,-0.02583,46110,2016-04-03 23:59:45:255
2.26252,7.78116,5.77661,-0.01225,-0.00985,-0.02157,46210,2016-04-03 23:59:45:355
2.26252,7.78116,5.77661,0.01891,-2.7E-4,-0.0269,46311,2016-04-03 23:59:45:456
2.25654,7.82425,5.64194,-0.02557,-0.00666,-0.02051,46410,2016-04-03 23:59:45:555
2.27449,7.70215,5.81372,0.03569,-5.3E-4,-0.03409,46509,2016-04-03 23:59:45:654
2.35889,7.73267,5.71616,0.03569,-5.3E-4,-0.03409,46609,2016-04-03 23:59:45:754
2.28347,7.78056,5.48153,0.02077,-0.00506,-0.03302,46709,2016-04-03 23:59:45:854
2.2278,7.80689,5.59705,0.01411,-0.00666,-0.03036,46810,2016-04-03 23:59:45:955
2.2278,7.80689,5.59705,0.00692,-8.0E-4,-0.02796,46909,2016-04-03 23:59:46:054
2.29424,7.82365,5.60842,0.00453,-0.00346,-0.02983,47010,2016-04-03 23:59:46:155
2.25893,7.847,5.61201,0.02743,-0.00533,-0.03382,47109,2016-04-03 23:59:46:254
2.24217,7.85538,5.56293,0.02743,-0.00533,-0.03382,47210,2016-04-03 23:59:46:355
2.24277,7.81707,5.56532,-0.01518,-0.00639,-0.0237,47310,2016-04-03 23:59:46:455
2.27689,7.87513,5.59345,-0.00213,-0.00613,-0.02344,47410,2016-04-03 23:59:46:555
2.27689,7.87513,5.59345,-0.03782,-0.00799,-0.02157,47510,2016-04-03 23:59:46:655
2.28347,7.8039,5.57131,-0.02929,-0.00932,-0.01465,47609,2016-04-03 23:59:46:754
2.20147,7.8446,5.62578,-0.03542,0.0,-0.0245,47710,2016-04-03 23:59:46:855
2.23738,7.77457,5.6976,-0.03542,0.0,-0.0245,47810,2016-04-03 23:59:46:955
2.28467,7.7638,5.71316,-0.03728,-0.00373,-0.01704,47910,2016-04-03 23:59:47:055
2.30502,7.77517,5.71376,-0.01172,-0.00293,-0.02503,48011,2016-04-03 23:59:47:156
2.30502,7.77517,5.71376,-0.00959,-0.00719,-0.02157,48109,2016-04-03 23:59:47:254
2.30083,7.76799,5.7407,-0.00399,-0.0032,-0.01704,48209,2016-04-03 23:59:47:354
2.29724,7.78834,5.6976,-0.01411,8.0E-4,-0.02823,48310,2016-04-03 23:59:47:455
2.29903,7.75542,5.71436,-0.01411,8.0E-4,-0.02823,48410,2016-04-03 23:59:47:555
2.25893,7.78116,5.7,-0.01438,5.3E-4,-0.0229,48510,2016-04-03 23:59:47:655
2.27569,7.77756,5.74249,-0.00985,-0.00186,-0.0253,48610,2016-04-03 23:59:47:755
2.27569,7.77756,5.74249,-0.01305,0.00346,-0.02983,48709,2016-04-03 23:59:47:854
2.33375,7.74405,5.70359,-0.01784,0.00186,-0.02796,48810,2016-04-03 23:59:47:955
2.3116,7.73507,5.70119,-0.00639,-0.00692,-0.0253,48909,2016-04-03 23:59:48:054
2.3134,7.74524,5.71436,-0.00639,-0.00692,-0.0253,49010,2016-04-03 23:59:48:155
2.28407,7.79432,5.69042,0.01305,-0.01145,-0.0253,49111,2016-04-03 23:59:48:256
2.2721,7.78954,5.66289,0.02637,-0.01092,-0.02823,49209,2016-04-03 23:59:48:354
2.2721,7.78954,5.66289,0.01305,-0.00692,-0.0261,49310,2016-04-03 23:59:48:455
2.25175,7.78355,5.6174,0.01225,-0.00399,-0.02823,49409,2016-04-03 23:59:48:554
2.28347,7.80749,5.62518,0.00533,-0.00533,-0.0253,49510,2016-04-03 23:59:48:655
2.2697,7.82365,5.59525,0.00533,-0.00533,-0.0253,49609,2016-04-03 23:59:48:754
2.2314,7.88052,5.71316,0.00692,-0.00666,-0.02477,49710,2016-04-03 23:59:48:855
2.28766,7.84221,5.53958,-0.01518,0.0024,-0.02903,49809,2016-04-03 23:59:48:954
2.28766,7.84221,5.53958,-0.01039,-0.00506,-0.01971,49910,2016-04-03 23:59:49:055
2.27449,7.85358,5.58867,-0.02637,-0.0032,-0.02024,50010,2016-04-03 23:59:49:155
2.28766,7.82006,5.59226,-0.02663,-0.00533,-0.01784,50110,2016-04-03 23:59:49:255
2.24995,7.81408,5.63356,-0.02663,-0.00533,-0.01784,50210,2016-04-03 23:59:49:355
2.29005,7.8045,5.60483,-0.0229,-0.00746,-0.01944,50310,2016-04-03 23:59:49:455
2.27808,7.79133,5.66169,-0.02929,-8.0E-4,-0.0237,50410,2016-04-03 23:59:49:555
2.27808,7.79133,5.66169,-0.02423,-8.0E-4,-0.02264,50509,2016-04-03 23:59:49:654
2.25115,7.78654,5.69162,-0.02184,-8.0E-4,-0.02051,50609,2016-04-03 23:59:49:754
2.25953,7.74943,5.70059,-0.01598,0.0016,-0.02743,50710,2016-04-03 23:59:49:855
2.33195,7.7225,5.69221,-0.01598,0.0016,-0.02743,50810,2016-04-03 23:59:49:955
2.26192,7.73148,5.68024,-0.0245,-0.00559,-0.01332,50910,2016-04-03 23:59:50:055
2.28646,7.77218,5.71975,-0.02397,-0.00293,-0.01571,51010,2016-04-03 23:59:50:155
2.28646,7.77218,5.71975,-0.01305,-0.00453,-0.02557,51110,2016-04-03 23:59:50:255
2.28347,7.73806,5.70419,0.00293,-0.00719,-0.02317,51210,2016-04-03 23:59:50:355
2.26731,7.75961,5.69401,-0.00959,-0.00932,-0.0237,51309,2016-04-03 23:59:50:454
2.27509,7.75602,5.697,-0.00959,-0.00932,-0.0237,51409,2016-04-03 23:59:50:554
2.27748,7.73387,5.71676,0.00133,-0.00506,-0.02876,51510,2016-04-03 23:59:50:655
2.2727,7.77637,5.72035,0.00746,-0.00852,-0.02264,51609,2016-04-03 23:59:50:754
2.2727,7.77637,5.72035,0.01518,-0.00213,-0.02956,51709,2016-04-03 23:59:50:854
2.26851,7.77697,5.66348,0.02423,-0.00559,-0.02956,51810,2016-04-03 23:59:50:955
2.24756,7.84819,5.79576,-0.00426,-0.00266,-0.0269,51909,2016-04-03 23:59:51:054
2.28826,7.8027,5.62578,-0.00426,-0.00266,-0.0269,52009,2016-04-03 23:59:51:154
2.27808,7.85179,5.62039,2.7E-4,-0.00213,-0.02264,52109,2016-04-03 23:59:51:254
2.25354,7.80809,5.61799,0.00213,-0.00213,-0.02876,52209,2016-04-03 23:59:51:354
2.23798,7.87872,5.62518,0.00559,-0.00506,-0.0261,52309,2016-04-03 23:59:51:454
2.23798,7.87872,5.62518,0.00533,-0.00746,-0.0261,52409,2016-04-03 23:59:51:554
2.27569,7.86376,5.54557,-0.01917,-0.00426,-0.01891,52510,2016-04-03 23:59:51:655
2.23379,7.8446,5.55754,-0.01917,-0.00426,-0.01891,52609,2016-04-03 23:59:51:754
2.23738,7.8452,5.5755,-0.01997,-0.00479,-0.0221,52709,2016-04-03 23:59:51:854
2.25713,7.82964,5.6144,-0.02876,-0.00426,-0.02184,52809,2016-04-03 23:59:51:954
2.25713,7.82964,5.6144,-0.02823,-0.01145,-0.01784,52909,2016-04-03 23:59:52:054
2.22421,7.82964,5.62578,-0.0261,0.00186,-0.02796,53010,2016-04-03 23:59:52:155
2.24456,7.77577,5.66169,-0.03222,-0.00107,-0.01917,53109,2016-04-03 23:59:52:254
2.27449,7.76978,5.66109,-0.03222,-0.00107,-0.01917,53210,2016-04-03 23:59:52:355
2.30382,7.79013,5.75985,-0.00932,0.01278,-0.02237,53310,2016-04-03 23:59:52:455
2.24576,7.77218,5.68144,-0.00426,-0.00399,-0.02503,53410,2016-04-03 23:59:52:555
2.24576,7.77218,5.68144,-0.01758,-0.0032,-0.02184,53509,2016-04-03 23:59:52:654
2.26132,7.75183,5.70359,-0.00799,-0.00373,-0.02583,53609,2016-04-03 23:59:52:754
2.29604,7.75123,5.73471,-0.01039,-0.00479,-0.02237,53710,2016-04-03 23:59:52:855
2.29724,7.73447,5.70179,-0.00666,-0.00213,-0.02477,53809,2016-04-03 23:59:52:954
2.2703,7.75542,5.64852,-0.00666,-0.00213,-0.02477,53909,2016-04-03 23:59:53:054
2.33135,7.74105,5.70239,0.00692,0.00186,-0.02743,54010,2016-04-03 23:59:53:155
2.33135,7.74105,5.70239,-0.01092,-0.00186,-0.02477,54110,2016-04-03 23:59:53:255
2.27329,7.73447,5.71616,-0.00186,-0.00479,-0.0237,54210,2016-04-03 23:59:53:355
2.29185,7.75662,5.70239,0.00479,-0.00826,-0.02077,54310,2016-04-03 23:59:53:455
2.29724,7.76619,5.68623,0.00479,-0.00826,-0.02077,54409,2016-04-03 23:59:53:554
2.29005,7.8039,5.6587,0.02876,-0.00719,-0.03169,54510,2016-04-03 23:59:53:655
2.29604,7.81408,5.61799,0.01119,-0.00799,-0.0253,54610,2016-04-03 23:59:53:755
2.27509,7.80929,5.61799,0.01678,-0.00293,-0.0277,54710,2016-04-03 23:59:53:855
2.27509,7.80929,5.61799,0.01305,-0.00479,-0.02716,54809,2016-04-03 23:59:53:954
2.26791,7.84221,5.62039,0.01518,5.3E-4,-0.03009,54909,2016-04-03 23:59:54:054
2.28227,7.83922,5.53719,-0.00186,-0.00799,-0.02157,55010,2016-04-03 23:59:54:155
2.18172,7.86435,5.47315,-0.00186,-0.00799,-0.02157,55110,2016-04-03 23:59:54:255
2.2709,7.86495,5.59944,-0.00826,-0.00506,-0.01811,55209,2016-04-03 23:59:54:354
2.24756,7.86076,5.60662,-0.01305,-0.00613,-0.02344,55309,2016-04-03 23:59:54:454
2.24756,7.86076,5.60662,-0.01704,-0.00213,-0.02024,55409,2016-04-03 23:59:54:554
2.28108,7.82485,5.55575,-0.04101,-0.00826,-0.01332,55510,2016-04-03 23:59:54:655
2.27569,7.81767,5.62637,-0.03063,-0.0032,-0.01997,55610,2016-04-03 23:59:54:755
2.25953,7.81827,5.68743,-0.03063,-0.0032,-0.01997,55710,2016-04-03 23:59:54:855
2.28048,7.78056,5.64732,-0.02477,-0.00186,-0.02423,55809,2016-04-03 23:59:54:954
2.22421,7.82126,5.80594,-0.01704,-0.00213,-0.02184,55910,2016-04-03 23:59:55:055
2.22421,7.82126,5.80594,-0.02131,0.00213,-0.02503,56010,2016-04-03 23:59:55:155
2.3116,7.7632,5.66827,-0.02557,-0.00293,-0.0245,56109,2016-04-03 23:59:55:254
2.28347,7.76619,5.697,-0.01944,-0.00666,-0.02344,56210,2016-04-03 23:59:55:355
2.28586,7.76619,5.73711,-0.01944,-0.00666,-0.02344,56309,2016-04-03 23:59:55:454
2.29724,7.74225,5.67546,-0.00852,-0.00799,-0.01864,56409,2016-04-03 23:59:55:554
2.30143,7.74764,5.69102,-0.00346,-0.00692,-0.02051,56509,2016-04-03 23:59:55:654
2.30143,7.74764,5.69102,-0.01092,-0.0024,-0.0245,56609,2016-04-03 23:59:55:754
2.27389,7.75243,5.66887,5.3E-4,-0.00586,-0.02264,56710,2016-04-03 23:59:55:855
2.26252,7.77337,5.7,0.00905,-0.00266,-0.02397,56809,2016-04-03 23:59:55:954
2.28826,7.78774,5.71197,0.00905,-0.00266,-0.02397,56910,2016-04-03 23:59:56:055
2.29424,7.77158,5.46716,0.01438,-5.3E-4,-0.03063,57009,2016-04-03 23:59:56:154
2.23439,7.8033,5.60722,0.00426,-0.00879,-0.01891,57116,2016-04-03 23:59:56:261
2.23439,7.8033,5.60722,0.00772,-0.00373,-0.02264,57210,2016-04-03 23:59:56:355
2.30562,7.81408,5.63894,0.01039,-0.00506,-0.02637,57309,2016-04-03 23:59:56:454
2.26491,7.85298,5.59824,0.02663,-0.00133,-0.03515,57409,2016-04-03 23:59:56:554
2.23379,7.82964,5.50966,0.02663,-0.00133,-0.03515,57509,2016-04-03 23:59:56:654
2.26073,7.83503,5.60183,-0.00666,-0.0024,-0.0221,57609,2016-04-03 23:59:56:754
2.23559,7.88351,5.54377,0.00107,-0.00346,-0.02956,57709,2016-04-03 23:59:56:854
2.23559,7.88351,5.54377,-0.02823,-0.0016,-0.01864,57809,2016-04-03 23:59:56:954
2.27389,7.84999,5.58208,-0.01731,0.0016,-0.0269,57909,2016-04-03 23:59:57:054
2.21524,7.88231,5.80534,-0.03862,0.00426,-0.02503,58009,2016-04-03 23:59:57:154
2.30442,7.8027,5.63475,-0.03862,0.00426,-0.02503,58110,2016-04-03 23:59:57:255
2.27509,7.8051,5.65151,-0.02956,-0.00107,-0.01917,58209,2016-04-03 23:59:57:354
2.27868,7.7608,5.69102,-0.03196,-0.0024,-0.02264,58309,2016-04-03 23:59:57:454
2.27868,7.7608,5.69102,-0.01651,-0.00479,-0.01971,58409,2016-04-03 23:59:57:554
2.25773,7.78175,5.69341,-0.01838,-0.00692,-0.01917,58510,2016-04-03 23:59:57:655
2.25953,7.74764,5.69341,-0.01651,-0.00559,-0.02184,58610,2016-04-03 23:59:57:755
2.26252,7.77278,5.67605,-0.01651,-0.00559,-0.02184,58709,2016-04-03 23:59:57:854
2.2703,7.7614,5.67486,-0.01252,-0.00506,-0.02104,58809,2016-04-03 23:59:57:954
2.26671,7.75721,5.65929,-0.01332,-0.0032,-0.02264,58909,2016-04-03 23:59:58:054
2.26671,7.75721,5.65929,-0.02184,-0.00586,-0.02264,59010,2016-04-03 23:59:58:155
2.18531,7.76739,5.6551,-0.01571,8.0E-4,-0.02423,59109,2016-04-03 23:59:58:254
2.24636,7.762,5.67546,-0.00533,-0.0016,-0.01997,59209,2016-04-03 23:59:58:354
2.29843,7.75841,5.70359,-0.00533,-0.0016,-0.01997,59309,2016-04-03 23:59:58:454
2.26013,7.76978,5.67486,0.00905,-0.00506,-0.0253,59409,2016-04-03 23:59:58:554
2.25594,7.78834,5.60423,0.03329,-0.00399,-0.03409,59510,2016-04-03 23:59:58:655
2.25594,7.78834,5.60423,0.01092,-0.00107,-0.0237,59610,2016-04-03 23:59:58:755
2.27808,7.79013,5.6563,0.01438,-0.00373,-0.02743,59709,2016-04-03 23:59:58:854
2.2691,7.82305,5.63056,0.00692,-0.00559,-0.02743,59809,2016-04-03 23:59:58:954
2.25953,7.80749,5.67486,0.00692,-0.00559,-0.02743,59909,2016-04-03 23:59:59:054
2.24337,7.81168,5.54976,0.00985,-0.00266,-0.02583,60016,2016-04-03 23:59:59:161
2.34991,7.83263,5.62338,-0.00133,-0.00373,-0.02637,60110,2016-04-03 23:59:59:255
2.34991,7.83263,5.62338,-0.00772,-0.0016,-0.0237,60209,2016-04-03 23:59:59:354
2.27389,7.85717,5.54976,-0.01598,-0.00559,-0.02104,60311,2016-04-03 23:59:59:456
2.30023,7.80629,5.57909,-0.01704,0.00186,-0.02503,60409,2016-04-03 23:59:59:554
2.27509,7.87094,5.56592,-0.01704,0.00186,-0.02503,60509,2016-04-03 23:59:59:654
2.2697,7.82365,5.58567,-0.02104,-0.0024,-0.01704,60609,2016-04-03 23:59:59:754
2.2727,7.79013,5.64553,-0.02557,-5.3E-4,-0.0237,60709,2016-04-03 23:59:59:854
2.26611,7.80031,5.63176,-0.02317,-0.00213,-0.02503,60810,2016-04-03 23:59:59:955
2.26611,7.80031,5.63176,-0.01891,-0.00346,-0.02317,60909,2016-04-04 00:00:00:054
2.28766,7.77457,5.68204,-0.01838,0.00186,-0.02637,61009,2016-04-04 00:00:00:154
2.30262,7.75302,5.53121,-0.0261,-0.0032,-0.02077,61110,2016-04-04 00:00:00:255
2.22661,7.79492,5.62099,-0.0261,-0.0032,-0.02077,61210,2016-04-04 00:00:00:355
2.33435,7.78415,5.70359,-0.02743,-0.01092,-0.0032,61310,2016-04-04 00:00:00:455
2.27569,7.77397,5.64254,-0.01997,-8.0E-4,-0.03036,61413,2016-04-04 00:00:00:558
2.27569,7.77397,5.64254,0.0024,-0.0024,-0.02637,61509,2016-04-04 00:00:00:654
2.25953,7.74824,5.6976,-0.01385,-0.01012,-0.02237,61610,2016-04-04 00:00:00:755
2.25594,7.74883,5.71197,-0.01385,-0.01012,-0.02237,61711,2016-04-04 00:00:00:856
2.24816,7.79193,5.68204,-0.00666,-0.00426,-0.02929,61809,2016-04-04 00:00:00:954
2.31819,7.75243,5.72394,-0.00826,-0.00746,-0.02264,61909,2016-04-04 00:00:01:054
2.24696,7.77876,5.66468,0.01172,-0.00399,-0.02796,62009,2016-04-04 00:00:01:154
2.24696,7.77876,5.66468,0.01598,-0.00426,-0.0245,62109,2016-04-04 00:00:01:254
2.2721,7.79253,5.77302,-0.00586,-0.00559,-0.02157,62214,2016-04-04 00:00:01:359
2.25235,7.83622,5.60662,0.00506,-0.00932,-0.0221,62309,2016-04-04 00:00:01:454
2.25893,7.85717,5.65211,0.00506,-0.00932,-0.0221,62409,2016-04-04 00:00:01:554
2.26791,7.87692,5.59286,0.00932,-0.0032,-0.02983,62509,2016-04-04 00:00:01:654
2.22661,7.85119,5.60243,0.02024,-0.01065,-0.0261,62610,2016-04-04 00:00:01:755
2.22661,7.85119,5.60243,0.00559,-0.00479,-0.02423,62709,2016-04-04 00:00:01:854
2.25833,7.87333,5.59645,0.00533,-0.0016,-0.02903,62809,2016-04-04 00:00:01:954
2.26671,7.89308,5.5731,-0.00186,-0.00639,-0.02264,62910,2016-04-04 00:00:02:055
2.25713,7.87154,5.57191,-0.00186,-0.00639,-0.02264,63010,2016-04-04 00:00:02:155
2.25893,7.88052,5.58328,-0.01065,-0.00213,-0.0221,63110,2016-04-04 00:00:02:255
2.2278,7.86136,5.54737,-0.02104,-0.00826,-0.01545,63209,2016-04-04 00:00:02:354
2.2278,7.86136,5.54737,-0.02637,0.00186,-0.0269,63309,2016-04-04 00:00:02:454
2.25055,7.82665,5.64673,-0.03675,-0.00293,-0.01465,63410,2016-04-04 00:00:02:555
2.27449,7.79672,5.61201,-0.02344,0.0024,-0.0229,63509,2016-04-04 00:00:02:654
2.29664,7.8033,5.72753,-0.02344,0.0024,-0.0229,63609,2016-04-04 00:00:02:754
2.23439,7.77816,5.67725,-0.00559,5.3E-4,-0.03089,63710,2016-04-04 00:00:02:855
2.27689,7.76499,5.70419,-0.02184,-0.00213,-0.01651,63810,2016-04-04 00:00:02:955
2.27689,7.76499,5.70419,-0.01545,2.7E-4,-0.02397,63909,2016-04-04 00:00:03:054
2.26731,7.77697,5.6964,-0.01997,-0.00586,-0.02024,64009,2016-04-04 00:00:03:154
2.2721,7.77876,5.68563,-0.00613,-0.00107,-0.0269,64109,2016-04-04 00:00:03:254
2.24875,7.82425,5.93762,-0.00613,-0.00107,-0.0269,64209,2016-04-04 00:00:03:354
2.28527,7.7644,5.73591,-0.02237,-0.00559,-0.02184,64309,2016-04-04 00:00:03:454
2.2709,7.75961,5.72813,-0.01704,-0.0016,-0.02131,64409,2016-04-04 00:00:03:554
2.2709,7.75961,5.72813,0.00959,-0.00346,-0.02716,64510,2016-04-04 00:00:03:655
2.24995,7.74584,5.76404,0.02264,-0.01092,-0.01944,64609,2016-04-04 00:00:03:754
2.229,7.78774,5.69042,0.01917,-0.00373,-0.02344,64709,2016-04-04 00:00:03:854
2.30023,7.79253,5.60961,0.01917,-0.00373,-0.02344,64810,2016-04-04 00:00:03:955
2.27808,7.80749,5.62997,0.00746,-0.00266,-0.02583,64909,2016-04-04 00:00:04:054
2.27928,7.83682,5.60961,0.00613,-0.00692,-0.02823,65009,2016-04-04 00:00:04:154
2.27928,7.83682,5.60961,0.00613,-0.00959,-0.02903,65109,2016-04-04 00:00:04:254
2.26851,7.81767,5.54258,0.02131,-0.00586,-0.0229,65209,2016-04-04 00:00:04:354
2.24875,7.89069,5.697,0.00266,0.00186,-0.03329,65309,2016-04-04 00:00:04:454
2.25773,7.84999,5.60423,0.00266,0.00186,-0.03329,65409,2016-04-04 00:00:04:554
2.2302,7.83622,5.64194,-0.02477,-0.00213,-0.01864,65509,2016-04-04 00:00:04:654
2.29664,7.83622,5.64014,-0.0245,0.00533,-0.0253,65610,2016-04-04 00:00:04:755
2.29664,7.83622,5.64014,-0.00985,-0.00107,-0.02237,65709,2016-04-04 00:00:04:854
2.28467,7.81467,5.65032,-0.02956,-0.00293,-0.0237,65810,2016-04-04 00:00:04:955
2.22661,7.78774,5.66528,-0.02264,-0.0024,-0.0221,65909,2016-04-04 00:00:05:054
2.23618,7.80151,5.67845,-0.02264,-0.0024,-0.0221,66009,2016-04-04 00:00:05:154
2.2715,7.74045,5.61261,-0.02104,-0.01438,-0.02024,66109,2016-04-04 00:00:05:254
2.32657,7.76499,5.6551,0.00399,-0.00932,-0.02317,66209,2016-04-04 00:00:05:354
2.32657,7.76499,5.6551,-0.01545,-0.00586,-0.0253,66310,2016-04-04 00:00:05:455
2.26073,7.77218,5.67965,-0.01625,0.00186,-0.01971,66410,2016-04-04 00:00:05:555
2.26491,7.73387,5.72095,-0.00666,-0.00985,-0.0237,66509,2016-04-04 00:00:05:654
2.29604,7.75781,5.72573,-0.00666,-0.00985,-0.0237,66611,2016-04-04 00:00:05:756
2.29245,7.76739,5.64852,0.00399,-0.00852,-0.0261,66709,2016-04-04 00:00:05:854
2.30741,7.77457,5.69521,0.01252,-0.00506,-0.02397,66809,2016-04-04 00:00:05:954
2.30741,7.77457,5.69521,0.01252,-2.7E-4,-0.02823,66909,2016-04-04 00:00:06:054
2.28826,7.80689,5.64792,0.00826,-0.00373,-0.02397,67010,2016-04-04 00:00:06:155
2.27928,7.78834,5.63116,0.00985,-0.01305,-0.02557,67109,2016-04-04 00:00:06:254
2.20386,7.83742,5.67306,0.00985,-0.01305,-0.02557,67209,2016-04-04 00:00:06:354
2.23918,7.83143,5.63176,0.01571,-0.00985,-0.03755,67310,2016-04-04 00:00:06:455
2.25354,7.84281,5.60004,-0.00186,0.00346,-0.02477,67410,2016-04-04 00:00:06:555
2.25354,7.84281,5.60004,2.7E-4,-0.01571,-0.02876,67510,2016-04-04 00:00:06:655
2.28287,7.82425,5.62697,0.00506,-0.0016,-0.02876,67610,2016-04-04 00:00:06:755
2.25354,7.83443,5.57849,-0.02663,-0.00133,-0.02184,67710,2016-04-04 00:00:06:855
2.25235,7.82246,5.60004,-0.02663,-0.00133,-0.02184,67809,2016-04-04 00:00:06:954
2.26671,7.81587,5.59884,-0.02823,-8.0E-4,-0.0245,67909,2016-04-04 00:00:07:054
2.26731,7.77876,5.60602,-0.03089,-0.0032,-0.02184,68009,2016-04-04 00:00:07:154
2.26731,7.77876,5.60602,-0.01411,-0.00666,-0.01198,68109,2016-04-04 00:00:07:254
2.19249,7.81827,5.66947,-0.02131,0.0016,-0.0277,68209,2016-04-04 00:00:07:354
2.26731,7.77697,5.71915,-0.02157,-0.00266,-0.02184,68309,2016-04-04 00:00:07:454
2.29245,7.73207,5.70838,-0.02157,-0.00266,-0.02184,68409,2016-04-04 00:00:07:554
2.30981,7.74824,5.75207,-0.01465,-0.0016,-0.02104,68509,2016-04-04 00:00:07:654
2.27808,7.74764,5.67306,0.0,-0.0032,-0.02344,68609,2016-04-04 00:00:07:754
2.27808,7.74764,5.67306,-0.01012,0.0,-0.02557,68709,2016-04-04 00:00:07:854
2.28706,7.75183,5.66348,-0.00746,-0.0016,-0.02903,68810,2016-04-04 00:00:07:955
2.29065,7.75422,5.72334,-0.00506,0.0,-0.02876,68909,2016-04-04 00:00:08:054
2.26791,7.75123,5.71795,-0.00506,0.0,-0.02876,69010,2016-04-04 00:00:08:155
2.24756,7.81168,5.75207,0.01625,-0.00559,-0.02663,69109,2016-04-04 00:00:08:254
2.33315,7.76559,5.69581,0.00826,0.00107,-0.02956,69209,2016-04-04 00:00:08:354
2.33315,7.76559,5.69581,0.01145,-0.00479,-0.02876,69310,2016-04-04 00:00:08:455
2.27509,7.80989,5.62099,0.01891,-0.0016,-0.0285,69410,2016-04-04 00:00:08:555
2.25175,7.82126,5.66468,0.01358,-0.01198,-0.02503,69510,2016-04-04 00:00:08:655
2.24636,7.87393,5.5749,0.00799,-0.00399,-0.02956,69609,2016-04-04 00:00:08:754
2.24516,7.85957,5.5737,0.00799,-0.00399,-0.02956,69709,2016-04-04 00:00:08:854
2.26671,7.85657,5.54318,0.00293,-0.00506,-0.02557,69811,2016-04-04 00:00:08:956
2.26671,7.85657,5.54318,-0.01065,-0.00266,-0.0245,69909,2016-04-04 00:00:09:054
2.25354,7.86076,5.55156,-0.03302,0.00133,-0.02264,70010,2016-04-04 00:00:09:155
2.24636,7.83682,5.48751,-0.01997,-0.00399,-0.02184,70109,2016-04-04 00:00:09:254
2.23618,7.80749,5.56053,-0.01731,8.0E-4,-0.02237,70210,2016-04-04 00:00:09:355
2.25773,7.82545,5.6144,-0.01731,8.0E-4,-0.02237,70309,2016-04-04 00:00:09:454
2.26372,7.82724,5.6168,-0.00639,-0.00213,-0.02264,70410,2016-04-04 00:00:09:555
2.24875,7.83203,5.59465,0.0032,-0.00266,-0.02929,70510,2016-04-04 00:00:09:655
2.24875,7.83203,5.59465,-0.02397,-0.00373,-0.02317,70610,2016-04-04 00:00:09:755
2.25354,7.81527,5.67186,-0.00586,5.3E-4,-0.02557,70709,2016-04-04 00:00:09:854
2.26073,7.77218,5.60842,-0.01465,0.00453,-0.02503,70810,2016-04-04 00:00:09:955
2.29365,7.77098,5.61081,-0.01465,0.00453,-0.02503,70910,2016-04-04 00:00:10:055
2.23559,7.74405,5.64433,-0.03249,-0.00959,-0.01092,71010,2016-04-04 00:00:10:155
2.27928,7.7626,5.69581,-0.03569,-0.00426,-0.01358,71110,2016-04-04 00:00:10:255
2.27928,7.7626,5.69581,-0.02583,0.00133,-0.02637,71209,2016-04-04 00:00:10:354
2.21105,7.73387,5.71017,0.0032,0.00213,-0.03276,71309,2016-04-04 00:00:10:454
2.24995,7.77936,5.69281,-0.01864,-0.00613,-0.01704,71410,2016-04-04 00:00:10:555
2.30442,7.75362,5.6994,-0.01864,-0.00613,-0.01704,71509,2016-04-04 00:00:10:654
2.27389,7.76918,5.78738,-0.03249,-0.00293,-0.01385,71609,2016-04-04 00:00:10:754
2.24097,7.78056,5.77182,-0.0245,-0.01997,-0.01358,71710,2016-04-04 00:00:10:855
2.24097,7.78056,5.77182,0.01678,0.00479,-0.04261,71809,2016-04-04 00:00:10:954
2.26013,7.71711,5.74848,-0.00985,-0.01172,-0.01252,71910,2016-04-04 00:00:11:055
2.44089,7.63331,5.80295,0.03222,-0.03302,0.00213,72010,2016-04-04 00:00:11:155
2.24636,7.71532,5.61261,0.03222,-0.03302,0.00213,72109,2016-04-04 00:00:11:254
2.75333,7.59261,5.92505,0.04794,-0.01012,-0.03569,72210,2016-04-04 00:00:11:355
2.95445,7.38731,5.75267,-0.19548,-0.29827,-0.01065,72310,2016-04-04 00:00:11:455
2.95445,7.38731,5.75267,0.12277,0.18189,-0.04874,72409,2016-04-04 00:00:11:554
2.70246,7.61835,5.62578,-0.03569,-0.08709,0.01545,72510,2016-04-04 00:00:11:655
3.2633,7.44297,5.68683,-0.06711,-0.06658,-0.03675,72610,2016-04-04 00:00:11:755
3.11366,7.44956,5.56831,-0.06711,-0.06658,-0.03675,72710,2016-04-04 00:00:11:855
3.15137,7.49505,5.67605,0.01039,0.00613,-0.01838,72809,2016-04-04 00:00:11:954
3.03465,7.46931,5.66289,-0.00559,0.01119,-0.04048,72910,2016-04-04 00:00:12:055
3.03465,7.46931,5.66289,-8.0E-4,-0.00959,-0.03329,73009,2016-04-04 00:00:12:154
3.05021,7.4723,5.64313,-0.02131,0.0016,-0.01704,73109,2016-04-04 00:00:12:254
3.09271,7.45734,5.68384,-0.02264,0.00905,-0.0261,73209,2016-04-04 00:00:12:354
3.02208,7.49744,5.72693,-0.02264,0.00905,-0.0261,73310,2016-04-04 00:00:12:455
3.06637,7.4753,5.68862,-0.02956,-5.3E-4,-0.01997,73410,2016-04-04 00:00:12:555
3.0568,7.45195,5.72095,-0.02716,0.00266,-0.01917,73509,2016-04-04 00:00:12:654
3.0568,7.45195,5.72095,-0.02397,0.00772,-0.01598,73610,2016-04-04 00:00:12:755
3.01071,7.40227,5.76404,-0.02903,-0.00932,-0.01891,73711,2016-04-04 00:00:12:856
3.02747,7.41245,5.78918,-0.02423,0.00346,-0.01065,73809,2016-04-04 00:00:12:954
3.07116,7.38851,5.79995,-0.02423,0.00346,-0.01065,73909,2016-04-04 00:00:13:054
3.04782,7.35379,5.86879,-0.01491,-0.00107,-0.02237,74009,2016-04-04 00:00:13:154
3.05021,7.37414,5.79457,-0.00213,-0.00799,-0.02503,74109,2016-04-04 00:00:13:254
3.05021,7.37414,5.79457,-0.00826,0.00346,-0.01917,74209,2016-04-04 00:00:13:354
3.07715,7.40826,5.8221,-0.00399,0.00346,-0.01971,74309,2016-04-04 00:00:13:454
3.07535,7.40108,5.85203,0.0221,-0.01145,-0.02131,74409,2016-04-04 00:00:13:554
3.07056,7.39569,5.76524,0.0221,-0.01145,-0.02131,74509,2016-04-04 00:00:13:654
3.04782,7.42981,5.71316,0.01385,-0.01119,-0.0269,74609,2016-04-04 00:00:13:754
2.9335,7.44238,5.43723,0.13449,0.22823,-0.06471,74709,2016-04-04 00:00:13:854
2.9335,7.44238,5.43723,0.01944,0.01438,-0.08762,74809,2016-04-04 00:00:13:954
2.48458,7.66683,5.76404,0.02024,-2.7E-4,-0.02743,74909,2016-04-04 00:00:14:054
2.6031,7.68299,5.63894,0.0261,0.00133,-0.02583,75009,2016-04-04 00:00:14:154
2.65397,7.71831,5.67486,0.0261,0.00133,-0.02583,75109,2016-04-04 00:00:14:254
2.5193,7.82006,5.50786,0.0743,0.01997,-0.06951,75209,2016-04-04 00:00:14:354
2.62524,7.71113,5.68084,-0.04155,0.00107,-0.01065,75309,2016-04-04 00:00:14:454
2.62524,7.71113,5.68084,-0.0024,5.3E-4,-0.02956,75409,2016-04-04 00:00:14:554
2.56419,7.70394,5.56772,-0.04447,-0.0016,-0.00826,75509,2016-04-04 00:00:14:654
2.62165,7.71651,5.7407,-0.03249,0.0024,-0.02237,75609,2016-04-04 00:00:14:754
2.61507,7.63152,5.59345,-0.03249,0.0024,-0.02237,75709,2016-04-04 00:00:14:854
2.56838,7.67461,5.66408,-0.04607,0.0016,-0.01252,75810,2016-04-04 00:00:14:955
2.54683,7.63272,5.74249,-0.04208,-8.0E-4,-0.01571,75910,2016-04-04 00:00:15:055
2.54683,7.63272,5.74249,-0.02716,0.00613,-0.01332,76010,2016-04-04 00:00:15:155
2.50314,7.65247,5.7377,-0.00533,0.00692,-0.03941,76110,2016-04-04 00:00:15:255
2.58155,7.62194,5.73651,-0.01119,-0.00266,-0.01944,76211,2016-04-04 00:00:15:356
2.61327,7.6375,5.77302,-0.01119,-0.00266,-0.01944,76309,2016-04-04 00:00:15:454
2.61866,7.64109,5.75925,-0.00985,-0.0016,-0.01145,76410,2016-04-04 00:00:15:555
2.6438,7.54712,5.779,-0.03808,-0.01252,0.0016,76509,2016-04-04 00:00:15:654
2.6438,7.54712,5.779,-0.0024,-0.00186,-0.02051,76609,2016-04-04 00:00:15:754
2.65218,7.59501,5.71436,0.00746,-0.01039,-0.01944,76710,2016-04-04 00:00:15:855
2.55641,7.60159,5.79517,0.01678,0.00559,-0.03089,76810,2016-04-04 00:00:15:955
2.58634,7.69137,5.89093,0.01678,0.00559,-0.03089,76909,2016-04-04 00:00:16:054
2.57915,7.61296,5.71376,0.0237,-0.00932,-0.01225,77010,2016-04-04 00:00:16:155
2.66355,7.65785,5.74608,0.02716,-0.00852,-0.00692,77109,2016-04-04 00:00:16:254
2.66355,7.65785,5.74608,0.03968,-0.00266,-0.04474,77210,2016-04-04 00:00:16:355
2.5175,7.7237,5.66348,0.01172,-0.02716,0.02024,77310,2016-04-04 00:00:16:455
2.67911,7.60159,5.65929,0.01012,5.3E-4,-0.05087,77410,2016-04-04 00:00:16:555
2.50194,7.7638,5.53001,0.01012,5.3E-4,-0.05087,77510,2016-04-04 00:00:16:655
2.52349,7.60099,5.83647,-0.07697,-0.0016,-0.00559,77610,2016-04-04 00:00:16:755
2.52109,7.79492,5.63715,0.05646,-5.3E-4,-0.04261,77710,2016-04-04 00:00:16:855
2.44448,7.70275,5.55335,-0.03222,0.04075,-0.05513,77810,2016-04-04 00:00:16:955
2.44448,7.70275,5.55335,-0.10173,-0.04155,0.06125,77909,2016-04-04 00:00:17:054
2.69048,7.54233,5.88076,0.0269,0.13316,-0.05433,78010,2016-04-04 00:00:17:155
2.3553,7.80151,5.7,0.0269,0.13316,-0.05433,78110,2016-04-04 00:00:17:255
2.56778,7.43579,5.81791,-0.03755,-0.00852,-0.01225,78209,2016-04-04 00:00:17:354
3.24354,7.61955,6.27999,-0.07723,-0.17524,-0.1518,78309,2016-04-04 00:00:17:454
2.38044,8.79031,6.16567,0.00399,-0.59042,-0.20932,78413,2016-04-04 00:00:17:558
2.38044,8.79031,6.16567,1.50522,-0.6357,-0.55181,78510,2016-04-04 00:00:17:655
2.80421,8.26179,4.53462,0.51319,-0.55127,-0.13582,78610,2016-04-04 00:00:17:755
2.42892,8.68497,3.30939,0.51319,-0.55127,-0.13582,78709,2016-04-04 00:00:17:854
2.20326,8.88967,3.30998,0.14488,-0.15313,-0.22743,78809,2016-04-04 00:00:17:954
2.11827,8.99861,2.89579,0.07164,-0.50573,-0.151,78910,2016-04-04 00:00:18:055
2.50314,9.08779,3.48596,-0.15579,0.14754,0.16858,79010,2016-04-04 00:00:18:155
2.50314,9.08779,3.48596,0.04634,0.05673,-0.01491,79110,2016-04-04 00:00:18:255
2.57137,8.93696,3.41054,0.01758,-0.00932,-0.03968,79209,2016-04-04 00:00:18:354
2.40857,8.78672,3.22439,-0.07137,0.00639,-0.0735,79310,2016-04-04 00:00:18:455
2.60848,8.97048,3.52965,-0.07137,0.00639,-0.0735,79409,2016-04-04 00:00:18:554
2.45286,9.03512,3.59011,-0.16299,0.03036,0.02051,79510,2016-04-04 00:00:18:655
2.58993,8.80408,3.58412,0.08123,0.04554,-0.03063,79610,2016-04-04 00:00:18:755
2.58993,8.80408,3.58412,-0.10173,-0.0016,-0.00107,79709,2016-04-04 00:00:18:854
2.5612,8.97107,3.73675,0.06898,-0.17124,-0.14408,79809,2016-04-04 00:00:18:954
2.67672,9.09797,3.54043,0.0735,-0.06818,0.01252,79910,2016-04-04 00:00:19:055
2.2721,8.85496,3.73495,0.0735,-0.06818,0.01252,80010,2016-04-04 00:00:19:155
2.75393,8.86752,3.64098,-0.03329,0.01278,0.00186,80111,2016-04-04 00:00:19:256
2.45645,8.97766,3.45304,0.03595,0.0016,-0.03595,80209,2016-04-04 00:00:19:354
2.45645,8.97766,3.45304,0.08256,-0.11132,-0.13848,80310,2016-04-04 00:00:19:455
2.41874,8.89685,3.66971,-0.09428,-0.07164,-0.0245,80410,2016-04-04 00:00:19:555
2.23978,8.75081,3.25073,-0.25833,-0.41998,-0.15287,80510,2016-04-04 00:00:19:655
2.45645,8.34679,3.65355,-0.25833,-0.41998,-0.15287,80609,2016-04-04 00:00:19:754
3.94624,7.24964,3.09032,-0.58616,0.30094,0.13369,80709,2016-04-04 00:00:19:854
3.25192,8.94234,4.38678,0.26871,-0.07617,-0.22557,80809,2016-04-04 00:00:19:954
3.25192,8.94234,4.38678,-0.00772,0.03329,-0.07803,80910,2016-04-04 00:00:20:055
1.59214,8.73944,4.47895,-0.0269,-0.02184,-0.0016,81011,2016-04-04 00:00:20:156
1.60771,8.66821,4.53282,-0.03143,-0.01625,0.0,81109,2016-04-04 00:00:20:254
1.76872,8.57004,4.57592,-0.03143,-0.01625,0.0,81209,2016-04-04 00:00:20:354
1.61668,8.69454,4.53821,0.0032,0.00293,-0.04155,81309,2016-04-04 00:00:20:454
1.74058,8.58621,4.6651,-0.04021,-5.3E-4,-0.01811,81409,2016-04-04 00:00:20:554
1.74058,8.58621,4.6651,0.03995,0.00293,-0.02583,81509,2016-04-04 00:00:20:654
1.61549,8.79749,4.40054,-0.01864,-0.00799,-0.00479,81609,2016-04-04 00:00:20:754
1.80164,8.56705,4.52384,0.0538,0.00746,-0.03968,81709,2016-04-04 00:00:20:854
1.70108,8.6287,4.52684,0.0538,0.00746,-0.03968,81809,2016-04-04 00:00:20:954
1.70048,8.73584,4.47596,0.04155,0.00346,-0.03329,81910,2016-04-04 00:00:21:055
1.72802,8.65863,4.47895,0.01252,-0.0032,-0.0245,82009,2016-04-04 00:00:21:154
1.72802,8.65863,4.47895,0.04953,0.0,-0.04687,82109,2016-04-04 00:00:21:254
1.67355,8.77894,4.27245,-0.03888,-0.00799,-0.01119,82209,2016-04-04 00:00:21:354
1.73699,8.68856,4.42867,0.00666,0.00346,-0.03808,82309,2016-04-04 00:00:21:454
1.63823,8.72507,4.31675,0.00666,0.00346,-0.03808,82410,2016-04-04 00:00:21:555
1.69091,8.73046,4.46698,-0.04155,-0.01198,-0.00613,82509,2016-04-04 00:00:21:654
1.69928,8.67479,4.376,-0.03462,0.00453,-0.02184,82609,2016-04-04 00:00:21:754
1.69928,8.67479,4.376,-0.04474,-0.00799,-0.00799,82710,2016-04-04 00:00:21:855
1.66996,8.62751,4.42329,-0.01971,-0.00719,-0.0285,82809,2016-04-04 00:00:21:954
1.70826,8.7125,4.42927,-0.03089,2.7E-4,-0.02131,82909,2016-04-04 00:00:22:054
1.68552,8.68557,4.48853,-0.03089,2.7E-4,-0.02131,83009,2016-04-04 00:00:22:154
1.66517,8.64666,4.52384,-0.01491,-0.00666,-0.01944,83110,2016-04-04 00:00:22:255
1.71066,8.64067,4.51965,-0.01385,-0.00746,-0.01571,83209,2016-04-04 00:00:22:354
1.71066,8.64067,4.51965,-0.01571,2.7E-4,-0.01891,83309,2016-04-04 00:00:22:454
1.68253,8.67898,4.47895,-0.01278,-0.00293,-0.0269,83409,2016-04-04 00:00:22:554
1.69988,8.60416,4.48673,-0.00985,-0.00373,-0.01758,83509,2016-04-04 00:00:22:654
1.74358,8.63589,4.5029,-0.00985,-0.00373,-0.01758,83609,2016-04-04 00:00:22:754
1.71844,8.68736,4.46519,0.01385,-0.00852,-0.02237,83709,2016-04-04 00:00:22:854
1.70228,8.66282,4.48434,0.01039,0.00506,-0.03036,83809,2016-04-04 00:00:22:954
1.70228,8.66282,4.48434,0.00586,0.00186,-0.03063,83909,2016-04-04 00:00:23:054
1.67834,8.67479,4.44603,0.00692,-0.0016,-0.02344,84009,2016-04-04 00:00:23:154
1.75076,8.70292,4.47057,0.01784,-0.0016,-0.03542,84110,2016-04-04 00:00:23:255
1.67893,8.69993,4.39575,0.01784,-0.0016,-0.03542,84209,2016-04-04 00:00:23:354
1.68312,8.69993,4.4185,-0.01119,-0.00426,-0.02503,84310,2016-04-04 00:00:23:455
1.71006,8.68916,4.39037,-0.0024,-8.0E-4,-0.02663,84409,2016-04-04 00:00:23:554
1.71006,8.68916,4.39037,-0.01358,-0.00346,-0.0237,84509,2016-04-04 00:00:23:654
1.67355,8.68437,4.41431,-0.03063,-0.00746,-0.01571,84610,2016-04-04 00:00:23:755
1.67235,8.66521,4.40773,-0.01198,-0.00293,-0.02876,84709,2016-04-04 00:00:23:854
1.68492,8.66521,4.47596,-0.01198,-0.00293,-0.02876,84809,2016-04-04 00:00:23:954
1.68791,8.68497,4.48314,-0.01092,-0.00905,-0.02237,84910,2016-04-04 00:00:24:055
1.72622,8.68257,4.5436,-0.00772,-0.00799,-0.02024,85009,2016-04-04 00:00:24:154
1.72622,8.68257,4.5436,0.00985,0.00107,-0.03063,85110,2016-04-04 00:00:24:255
1.67474,8.68257,4.42508,-0.03302,-0.01065,-0.01784,85210,2016-04-04 00:00:24:355
1.76572,8.60716,4.43406,-0.01411,-0.00692,-0.0277,85309,2016-04-04 00:00:24:454
1.69031,8.68257,4.46878,-0.01411,-0.00692,-0.0277,85410,2016-04-04 00:00:24:555
1.69869,8.6293,4.52325,-0.02477,-0.00959,-0.01198,85510,2016-04-04 00:00:24:655
1.71664,8.60955,4.50768,-0.00533,0.00107,-0.0261,85610,2016-04-04 00:00:24:755
1.74298,8.64247,4.51965,0.03382,2.7E-4,-0.02956,85710,2016-04-04 00:00:24:855
1.74298,8.64247,4.51965,-0.00399,5.3E-4,-0.02477,85809,2016-04-04 00:00:24:954
1.68253,8.66342,4.51965,0.01065,5.3E-4,-0.02796,85909,2016-04-04 00:00:25:054
1.6927,8.68616,4.48673,0.01065,5.3E-4,-0.02796,86010,2016-04-04 00:00:25:155
1.72263,8.66342,4.45262,0.01518,-0.00213,-0.02051,86110,2016-04-04 00:00:25:255
1.64362,8.74183,4.42149,0.0253,0.00213,-0.04101,86209,2016-04-04 00:00:25:354
1.68432,8.66402,4.43346,0.00533,0.00399,-0.0277,86310,2016-04-04 00:00:25:455
1.68432,8.66402,4.43346,0.02264,0.00826,-0.04767,86410,2016-04-04 00:00:25:555
1.61668,8.76517,4.30956,-0.00533,-0.00186,-0.02051,86510,2016-04-04 00:00:25:655
1.58975,8.7137,4.45501,-0.00533,-0.00186,-0.02051,86610,2016-04-04 00:00:25:755
1.59813,8.69754,4.25929,-0.00852,-0.00639,-0.02051,86710,2016-04-04 00:00:25:855
1.66696,8.68377,4.4604,-0.02557,-0.01039,-0.01385,86809,2016-04-04 00:00:25:954
1.6502,8.66881,4.36942,-0.03888,-0.01225,-0.00905,86909,2016-04-04 00:00:26:054
1.6502,8.66881,4.36942,-0.03728,-0.01172,-0.00879,87010,2016-04-04 00:00:26:155
1.67175,8.68557,4.45202,-0.01891,-0.00586,-0.02903,87111,2016-04-04 00:00:26:256
1.67055,8.673,4.49511,-0.01731,-0.00266,-0.01917,87210,2016-04-04 00:00:26:355
1.67774,8.67838,4.52564,-0.01731,-0.00266,-0.01917,87310,2016-04-04 00:00:26:455
1.64661,8.64546,4.53043,-0.01332,0.00107,-0.02423,87409,2016-04-04 00:00:26:554
1.73759,8.65205,4.47237,0.00107,-0.00985,-0.00932,87514,2016-04-04 00:00:26:659
1.73759,8.65205,4.47237,0.01385,-0.00719,-0.02637,87609,2016-04-04 00:00:26:754
1.67654,8.70771,4.37959,-0.02637,-0.01065,-0.01039,87710,2016-04-04 00:00:26:855
1.77949,8.61733,4.57113,-0.02397,0.0032,-0.0482,87809,2016-04-04 00:00:26:954
1.75495,8.60955,4.59507,-0.02397,0.0032,-0.0482,87909,2016-04-04 00:00:27:054
1.68133,8.69694,4.45741,0.03808,0.00479,-0.03595,88009,2016-04-04 00:00:27:154
1.72861,8.65564,4.60285,-0.01811,-0.00746,-0.01411,88109,2016-04-04 00:00:27:254
1.72861,8.65564,4.60285,0.02077,-0.00506,-0.02903,88210,2016-04-04 00:00:27:355
1.67534,8.69095,4.40832,-0.00852,-0.00133,-0.0221,88310,2016-04-04 00:00:27:455
1.73999,8.67599,4.56455,0.03515,0.00426,-0.03755,88409,2016-04-04 00:00:27:554
1.65679,8.7119,4.43945,0.03515,0.00426,-0.03755,88510,2016-04-04 00:00:27:655
1.68612,8.7143,4.43586,0.00826,-0.00799,-0.0245,88609,2016-04-04 00:00:27:754
1.70826,8.65863,4.34368,0.01065,-0.00453,-0.02557,88710,2016-04-04 00:00:27:855
1.70826,8.65863,4.34368,-0.00959,5.3E-4,-0.02344,88809,2016-04-04 00:00:27:954
1.74597,8.7125,4.42987,-0.02157,-0.00479,-0.02317,88909,2016-04-04 00:00:28:054
1.6939,8.63289,4.3766,0.00213,-8.0E-4,-0.03302,89009,2016-04-04 00:00:28:154
1.68731,8.70532,4.36643,0.00213,-8.0E-4,-0.03302,89109,2016-04-04 00:00:28:254
1.67534,8.71849,4.44962,-0.0221,-0.00479,-0.01917,89209,2016-04-04 00:00:28:354
1.69031,8.69335,4.37421,0.00399,-0.00453,-0.02051,89310,2016-04-04 00:00:28:455
1.69031,8.69335,4.37421,-0.02823,-0.00533,-0.01731,89409,2016-04-04 00:00:28:554
1.70048,8.68018,4.49332,-0.02796,-0.00426,-0.02104,89509,2016-04-04 00:00:28:654
1.67834,8.67719,4.5005,-0.03063,-0.00746,-0.01278,89610,2016-04-04 00:00:28:755
1.68253,8.6712,4.47955,-0.03063,-0.00746,-0.01278,89709,2016-04-04 00:00:28:854
1.69928,8.69574,4.53342,0.00826,-5.3E-4,-0.02929,89809,2016-04-04 00:00:28:954
1.71604,8.66641,4.60405,-0.02983,-0.0016,-0.01971,89909,2016-04-04 00:00:29:054
1.71604,8.66641,4.60405,-0.02983,-0.00746,-0.01545,90010,2016-04-04 00:00:29:155
1.72861,8.61972,4.56395,-0.02317,-0.00506,-0.01731,90109,2016-04-04 00:00:29:254
1.75016,8.60835,4.58609,0.00905,-0.0024,-0.01944,90209,2016-04-04 00:00:29:354
1.72143,8.61374,4.57831,0.00905,-0.0024,-0.01944,90309,2016-04-04 00:00:29:454
1.75794,8.57184,4.54659,-0.00879,-0.00346,-0.01944,90410,2016-04-04 00:00:29:555
1.74418,8.64666,4.58131,-0.00879,-0.00293,-0.02264,90510,2016-04-04 00:00:29:655
1.74418,8.64666,4.58131,-0.00266,0.00613,-0.02397,90610,2016-04-04 00:00:29:755
1.72742,8.63409,4.55557,-0.00772,5.3E-4,-0.02104,90709,2016-04-04 00:00:29:854
1.74238,8.66821,4.70042,-0.01758,-0.0032,-0.01305,90809,2016-04-04 00:00:29:954
1.72143,8.65564,4.5843,-0.01758,-0.0032,-0.01305,90909,2016-04-04 00:00:30:054
1.78069,8.60476,4.60166,-5.3E-4,-0.00533,-0.01917,91009,2016-04-04 00:00:30:154
1.72203,8.62631,4.48793,0.08788,0.00186,-0.04261,91110,2016-04-04 00:00:30:255
1.72203,8.62631,4.48793,0.08522,0.00107,-0.03382,91209,2016-04-04 00:00:30:354
1.67654,8.73584,4.25809,0.05965,0.00479,-0.03622,91310,2016-04-04 00:00:30:455
1.4856,8.97886,4.42448,-0.00959,0.01651,-0.08336,91409,2016-04-04 00:00:30:554
1.75854,8.61254,4.36762,-0.00959,0.01651,-0.08336,91510,2016-04-04 00:00:30:655
1.74717,8.71071,4.55557,-0.098,-0.01092,0.00506,91610,2016-04-04 00:00:30:755
1.53169,8.7945,4.28981,0.06924,0.01012,-0.07324,91709,2016-04-04 00:00:30:854
1.53169,8.7945,4.28981,-0.04155,-0.00719,0.00879,91810,2016-04-04 00:00:30:955
1.72323,8.77475,4.3772,-0.02024,0.00746,-0.04288,91910,2016-04-04 00:00:31:055
1.62985,8.65983,4.46279,-0.03755,-0.01518,0.0024,92009,2016-04-04 00:00:31:154
1.71066,8.68197,4.45142,-0.03755,-0.01518,0.0024,92110,2016-04-04 00:00:31:255
1.71185,8.70352,4.53462,-0.04288,-0.00692,-0.02024,92210,2016-04-04 00:00:31:355
1.67953,8.6718,4.44005,0.01039,-2.7E-4,-0.03329,92310,2016-04-04 00:00:31:455
1.67953,8.6718,4.44005,-0.02423,-0.00692,-0.01731,92409,2016-04-04 00:00:31:554
1.70048,8.70831,4.49751,-0.01465,-0.00346,-0.02823,92510,2016-04-04 00:00:31:655
1.65679,8.61972,4.43107,-0.01625,-0.00719,-0.01651,92609,2016-04-04 00:00:31:754
1.70946,8.70233,4.45202,-0.01625,-0.00719,-0.01651,92709,2016-04-04 00:00:31:854
1.65499,8.68497,4.52145,-0.00932,-0.00852,-0.02237,92810,2016-04-04 00:00:31:955
1.68552,8.65085,4.54479,-0.00772,-8.0E-4,-0.0253,92910,2016-04-04 00:00:32:055
1.68552,8.65085,4.54479,-0.00479,-0.00666,-0.02796,93010,2016-04-04 00:00:32:155
1.69749,8.67,4.50888,-0.00772,-0.0016,-0.02477,93110,2016-04-04 00:00:32:255
1.75914,8.63948,4.58011,0.00107,-0.00533,-0.0285,93209,2016-04-04 00:00:32:354
1.66996,8.68736,4.47237,0.00107,-0.00533,-0.0285,93309,2016-04-04 00:00:32:454
1.72323,8.64367,4.53462,-0.0237,-0.00772,-0.01039,93410,2016-04-04 00:00:32:555
1.71604,8.6317,4.53881,-0.00399,-0.00746,-0.01678,93509,2016-04-04 00:00:32:654
1.71604,8.6317,4.53881,0.0016,8.0E-4,-0.03143,93610,2016-04-04 00:00:32:755
1.69091,8.65564,4.51247,0.01704,-0.00293,-0.0253,93709,2016-04-04 00:00:32:854
1.72562,8.6694,4.49212,0.01145,0.0,-0.03302,93809,2016-04-04 00:00:32:954
1.75615,8.69514,4.47117,-0.01704,-0.00186,-0.02929,93910,2016-04-04 00:00:33:055
1.7346,8.68736,4.46219,-0.01704,-0.00186,-0.02929,94010,2016-04-04 00:00:33:155
1.69988,8.67,4.46878,0.00613,-0.00772,-0.02557,94110,2016-04-04 00:00:33:255
1.69988,8.67,4.46878,0.00772,-0.00613,-0.02876,94209,2016-04-04 00:00:33:354
1.66397,8.71549,4.38319,0.00293,-0.00293,-0.0245,94309,2016-04-04 00:00:33:454
1.66816,8.7538,4.42628,-0.0016,-0.00266,-0.0245,94410,2016-04-04 00:00:33:555
1.68552,8.7113,4.37002,-0.0016,-0.0032,-0.02583,94510,2016-04-04 00:00:33:655
1.63943,8.71011,4.36463,-0.01065,-0.0032,-0.02583,94609,2016-04-04 00:00:33:754
1.66517,8.74303,4.42568,-0.01891,-0.00399,-0.01891,94709,2016-04-04 00:00:33:854
1.66517,8.74303,4.42568,-0.04075,-0.00533,-0.01518,94809,2016-04-04 00:00:33:954
1.68253,8.66881,4.35625,-0.02024,-0.00373,-0.02983,94910,2016-04-04 00:00:34:055
1.67055,8.65923,4.46459,-0.02876,-0.00719,-0.01891,95009,2016-04-04 00:00:34:154
1.65978,8.67419,4.54719,-0.00586,-0.0032,-0.0229,95110,2016-04-04 00:00:34:255
1.70467,8.67719,4.50828,-0.00586,-0.0032,-0.0229,95209,2016-04-04 00:00:34:354
1.68432,8.66821,4.53641,-0.00826,-0.00399,-0.02796,95309,2016-04-04 00:00:34:454
1.67834,8.65025,4.49751,-0.01385,-0.00186,-0.0261,95409,2016-04-04 00:00:34:554
1.67834,8.65025,4.49751,-0.00959,-0.00186,-0.01758,95509,2016-04-04 00:00:34:654
1.72981,8.68497,4.49631,-0.01172,-0.00266,-0.0229,95609,2016-04-04 00:00:34:754
1.68193,8.64726,4.48314,-0.00852,-0.00453,-0.0229,95709,2016-04-04 00:00:34:854
1.6915,8.62392,4.461,-0.00852,-0.00453,-0.0229,95810,2016-04-04 00:00:34:955
1.71245,8.6718,4.55736,0.01278,0.0,-0.02583,95909,2016-04-04 00:00:35:054
1.68372,8.68018,4.49152,-0.00399,2.7E-4,-0.02823,96009,2016-04-04 00:00:35:154
1.68372,8.68018,4.49152,-0.01731,0.00133,-0.01838,96110,2016-04-04 00:00:35:255
1.72502,8.66402,4.57293,0.02184,-0.00133,-0.02557,96209,2016-04-04 00:00:35:354
1.734,8.66282,4.57771,0.02024,-0.00533,-0.0285,96310,2016-04-04 00:00:35:455
1.70467,8.67,4.45681,0.02024,-0.00533,-0.0285,96410,2016-04-04 00:00:35:555
1.70467,8.66821,4.42927,8.0E-4,-0.00985,-0.02983,96509,2016-04-04 00:00:35:654
1.69629,8.69095,4.47895,0.00692,-0.00107,-0.02929,96609,2016-04-04 00:00:35:754
1.69629,8.69095,4.47895,0.02317,0.00213,-0.03329,96709,2016-04-04 00:00:35:854
1.67893,8.72028,4.36762,0.00266,-8.0E-4,-0.02317,96809,2016-04-04 00:00:35:954
1.71545,8.74542,4.5424,-0.01465,0.00373,-0.02716,96910,2016-04-04 00:00:36:055
1.65798,8.70292,4.36762,-0.01465,0.00373,-0.02716,97010,2016-04-04 00:00:36:155
1.70647,8.7125,4.40593,-0.00506,-0.00293,-0.01891,97109,2016-04-04 00:00:36:254
1.66098,8.68916,4.4179,-0.01092,-0.0016,-0.02823,97209,2016-04-04 00:00:36:354
1.66098,8.68916,4.4179,-0.01252,-0.00879,-0.0221,97310,2016-04-04 00:00:36:455
1.65918,8.69993,4.458,-0.0229,-0.01012,-0.01358,97409,2016-04-04 00:00:36:554
1.69869,8.70472,4.43705,-0.02929,-0.00852,-0.02024,97510,2016-04-04 00:00:36:655
1.68432,8.68257,4.44543,-0.02929,-0.00852,-0.02024,97610,2016-04-04 00:00:36:755
1.69569,8.69035,4.5005,-0.02477,-0.00666,-0.0221,97710,2016-04-04 00:00:36:855
1.6502,8.66043,4.46698,-0.01704,-0.00266,-0.0261,97810,2016-04-04 00:00:36:955
1.6502,8.66043,4.46698,-0.01465,-0.00186,-0.01997,97909,2016-04-04 00:00:37:054
1.77111,8.61554,4.50709,-0.02157,-0.0032,-0.02637,98009,2016-04-04 00:00:37:154
1.71006,8.70233,4.52983,-0.02024,-0.00346,-0.0253,98110,2016-04-04 00:00:37:255
1.70048,8.6317,4.57173,-0.02024,-0.00346,-0.0253,98210,2016-04-04 00:00:37:355
1.69809,8.64606,4.47716,-0.00826,-0.00293,-0.02344,98309,2016-04-04 00:00:37:454
1.72023,8.7131,4.47596,0.00639,-0.00506,-0.02397,98409,2016-04-04 00:00:37:554
1.72023,8.7131,4.47596,-0.02503,-0.00719,-0.01358,98509,2016-04-04 00:00:37:654
1.74118,8.63229,4.56694,0.00506,-0.00107,-0.02237,98609,2016-04-04 00:00:37:754
1.71784,8.68138,4.48853,-0.01784,-0.00559,-0.02317,98710,2016-04-04 00:00:37:855
1.71066,8.62032,4.5849,-0.01784,-0.00559,-0.02317,98810,2016-04-04 00:00:37:955
1.68432,8.62392,4.41431,-0.00559,5.3E-4,-0.0285,98911,2016-04-04 00:00:38:056
1.6927,8.64726,4.49511,-0.00213,-0.00746,-0.01811,99010,2016-04-04 00:00:38:155
1.6927,8.64726,4.49511,0.00799,-0.00213,-0.02503,99109,2016-04-04 00:00:38:254
1.67774,8.68197,4.46758,0.00453,8.0E-4,-0.02131,99209,2016-04-04 00:00:38:354
1.66876,8.7119,4.5023,0.03515,2.7E-4,-0.02956,99310,2016-04-04 00:00:38:455
1.69689,8.65324,4.44065,0.03515,2.7E-4,-0.02956,99410,2016-04-04 00:00:38:555
1.70587,8.72926,4.39156,0.01332,-0.00213,-0.0285,99509,2016-04-04 00:00:38:654
1.62087,8.72327,4.45561,0.01411,-0.00399,-0.0269,99610,2016-04-04 00:00:38:755
1.62087,8.72327,4.45561,0.01891,-0.00479,-0.02397,99709,2016-04-04 00:00:38:854
1.66098,8.74063,4.38558,0.00985,0.00399,-0.0269,99809,2016-04-04 00:00:38:954
1.6496,8.73824,4.50409,-0.01758,-0.00479,-0.02157,99909,2016-04-04 00:00:39:054
1.65798,8.72986,4.30717,-0.01758,-0.00479,-0.02157,100009,2016-04-04 00:00:39:154
1.71365,8.74123,4.44484,-0.02317,-0.00985,-0.00985,100110,2016-04-04 00:00:39:255
1.61429,8.69754,4.42688,-0.02317,0.0024,-0.03649,100209,2016-04-04 00:00:39:354
1.61429,8.69754,4.42688,-0.03409,-0.01198,-0.00426,100310,2016-04-04 00:00:39:455
1.71664,8.65983,4.4586,-0.01119,-0.00453,-0.0253,100409,2016-04-04 00:00:39:554
1.67654,8.73405,4.41551,-0.03089,-0.00799,-0.0229,100509,2016-04-04 00:00:39:654
1.74418,8.6293,4.42508,-0.03089,-0.00799,-0.0229,100610,2016-04-04 00:00:39:755
1.8154,8.73465,4.47177,-0.02344,-0.00746,-0.01891,100710,2016-04-04 00:00:39:855
1.71964,8.70592,4.57352,-0.01625,5.3E-4,-0.03435,100809,2016-04-04 00:00:39:954
1.71964,8.70592,4.57352,0.00506,5.3E-4,-0.0285,100909,2016-04-04 00:00:40:054
1.71305,8.5874,4.44065,-0.02503,-0.00293,-0.01811,101009,2016-04-04 00:00:40:154
1.75555,8.69993,4.52803,-0.01811,0.00186,-0.03196,101110,2016-04-04 00:00:40:255
1.70347,8.61793,4.52025,-0.01811,0.00186,-0.03196,101209,2016-04-04 00:00:40:354
1.74657,8.66821,4.51546,-0.00533,-0.00772,-0.01039,101309,2016-04-04 00:00:40:454
1.71784,8.62571,4.53043,-0.01092,-0.00719,-0.0285,101409,2016-04-04 00:00:40:554
1.71784,8.62571,4.53043,0.00266,-8.0E-4,-0.02397,101509,2016-04-04 00:00:40:654
1.6921,8.6281,4.48195,2.7E-4,0.00186,-0.0221,101609,2016-04-04 00:00:40:754
1.72861,8.67359,4.52983,0.01198,-0.00373,-0.0285,101710,2016-04-04 00:00:40:855
1.68312,8.68437,4.47596,0.01198,-0.00373,-0.0285,101810,2016-04-04 00:00:40:955
1.70347,8.70053,4.49272,0.01332,-0.00533,-0.02503,101910,2016-04-04 00:00:41:055
1.66098,8.69035,4.50589,0.00799,0.00453,-0.04101,102009,2016-04-04 00:00:41:154
1.67534,8.69454,4.44484,0.00613,-0.00186,-0.02663,102110,2016-04-04 00:00:41:255
1.67534,8.69454,4.44484,0.00399,0.0,-0.02796,102209,2016-04-04 00:00:41:354
1.72921,8.7125,4.46399,0.01172,-0.00346,-0.03089,102309,2016-04-04 00:00:41:454
1.69689,8.68676,4.36822,0.01172,-0.00346,-0.03089,102410,2016-04-04 00:00:41:555
1.65858,8.7125,4.39276,-0.00533,-0.00426,-0.0285,102509,2016-04-04 00:00:41:654
1.67175,8.71549,4.39276,-0.01198,0.0024,-0.02344,102609,2016-04-04 00:00:41:754
1.67175,8.71549,4.39276,-0.0285,-0.00905,-0.01971,102709,2016-04-04 00:00:41:854
1.69091,8.7137,4.49811,-0.03382,-0.00533,-0.01944,102810,2016-04-04 00:00:41:955
1.68013,8.6694,4.38498,-0.01971,-0.00213,-0.02929,102910,2016-04-04 00:00:42:055
1.70288,8.67838,4.44962,-0.03249,-0.00613,-0.01411,103009,2016-04-04 00:00:42:154
1.7346,8.66043,4.51606,-0.03249,-0.00613,-0.01411,103109,2016-04-04 00:00:42:254
1.67834,8.66521,4.51008,-0.01438,-8.0E-4,-0.02823,103209,2016-04-04 00:00:42:354
1.67295,8.70412,4.49152,0.0,-0.00266,-0.0221,103311,2016-04-04 00:00:42:456
1.67295,8.70412,4.49152,-0.01145,-0.00133,-0.02131,103410,2016-04-04 00:00:42:555
1.72622,8.65683,4.51666,-0.01491,-0.01039,-0.0237,103512,2016-04-04 00:00:42:657
1.72622,8.66162,4.53103,-0.01039,-0.00506,-0.02637,103609,2016-04-04 00:00:42:754
1.70168,8.64307,4.51068,-0.01039,-0.00506,-0.02637,103709,2016-04-04 00:00:42:854
1.70168,8.63828,4.50589,-0.01305,-0.00692,-0.02077,103809,2016-04-04 00:00:42:954
1.70168,8.63828,4.50589,0.01864,-0.00426,-0.03063,103909,2016-04-04 00:00:43:054
1.71365,8.64247,4.56275,-0.01172,2.7E-4,-0.02743,104010,2016-04-04 00:00:43:155
1.67594,8.65504,4.57592,-0.01039,-0.00479,-0.01811,104109,2016-04-04 00:00:43:254
1.67893,8.63948,4.55377,0.01651,-0.00213,-0.02663,104209,2016-04-04 00:00:43:354
1.71245,8.65803,4.57592,0.01651,-0.00213,-0.02663,104309,2016-04-04 00:00:43:454
1.68013,8.66581,4.44783,0.01864,0.00266,-0.02823,104410,2016-04-04 00:00:43:555
1.69569,8.66641,4.47237,2.7E-4,-2.7E-4,-0.02051,104509,2016-04-04 00:00:43:654
1.69569,8.66641,4.47237,0.02131,0.00426,-0.0269,104609,2016-04-04 00:00:43:754
1.68312,8.68976,4.48853,0.01225,-0.01145,-0.03276,104710,2016-04-04 00:00:43:855
1.71664,8.64307,4.48254,0.03728,0.00107,-0.03675,104809,2016-04-04 00:00:43:954
1.63404,8.72088,4.35745,0.03728,0.00107,-0.03675,104909,2016-04-04 00:00:44:054
1.7747,8.71669,4.42568,0.02583,-0.01172,-0.03222,105009,2016-04-04 00:00:44:154
1.67235,8.7544,4.24432,0.0032,0.01811,-0.04607,105109,2016-04-04 00:00:44:254
1.67235,8.7544,4.24432,0.02743,0.00266,-0.03649,105209,2016-04-04 00:00:44:354
1.6089,8.76876,4.26347,0.01145,-0.00666,-0.0253,105309,2016-04-04 00:00:44:454
1.62267,8.80827,4.29699,-0.01358,-0.00692,-0.01758,105409,2016-04-04 00:00:44:554
1.59693,8.79989,4.2108,-0.01358,-0.00692,-0.01758,105509,2016-04-04 00:00:44:654
1.63464,8.76817,4.30238,-0.03009,-0.00293,-0.01731,105609,2016-04-04 00:00:44:754
1.66038,8.79151,4.34847,-0.0253,-0.00559,-0.01598,105709,2016-04-04 00:00:44:854
1.66038,8.79151,4.34847,-0.03542,-0.00719,-0.01731,105809,2016-04-04 00:00:44:954
1.68552,8.68317,4.35386,-0.02823,-0.00613,-0.01625,105909,2016-04-04 00:00:45:054
1.58855,8.74362,4.30896,-0.03862,-0.01305,-0.00799,106010,2016-04-04 00:00:45:155
1.69091,8.72028,4.40054,-0.03862,-0.01305,-0.00799,106109,2016-04-04 00:00:45:254
1.64362,8.71011,4.47476,-0.03143,-0.00639,-0.0221,106210,2016-04-04 00:00:45:355
1.62985,8.63289,4.45082,-0.02264,-0.00719,-0.01704,106309,2016-04-04 00:00:45:454
1.62985,8.63289,4.45082,-0.03009,-0.02024,2.7E-4,106409,2016-04-04 00:00:45:554
1.74358,8.7532,4.461,-0.02876,-0.01545,-0.00186,106509,2016-04-04 00:00:45:654
1.734,8.60177,4.44603,0.01198,-0.0016,-0.02344,106609,2016-04-04 00:00:45:754
1.76632,8.6712,4.45142,0.01198,-0.0016,-0.02344,106710,2016-04-04 00:00:45:855
1.79326,8.77116,4.62021,-0.00879,-0.00266,-0.02423,106809,2016-04-04 00:00:45:954
1.72263,8.66043,4.46219,-0.04075,-0.00453,-0.01784,106909,2016-04-04 00:00:46:054
1.72263,8.66043,4.46219,-0.02104,-0.00293,-0.01039,107009,2016-04-04 00:00:46:154
1.78607,8.7526,4.44903,-0.01039,0.0016,-0.02796,107109,2016-04-04 00:00:46:254
1.69809,8.66342,4.53881,0.01145,0.0,-0.03276,107209,2016-04-04 00:00:46:354
1.72083,8.65504,4.42808,0.01145,0.0,-0.03276,107309,2016-04-04 00:00:46:454
1.67834,8.73165,4.41551,0.01971,-0.00399,-0.03728,107410,2016-04-04 00:00:46:555
1.66038,8.67778,4.461,0.02743,0.00852,-0.04181,107509,2016-04-04 00:00:46:654
1.66038,8.67778,4.461,0.0221,0.0,-0.0237,107610,2016-04-04 00:00:46:755
1.5688,8.72627,4.25809,-0.09667,-0.01651,0.02743,107709,2016-04-04 00:00:46:854
1.92913,8.66162,4.74591,0.04155,0.02344,-0.08469,107810,2016-04-04 00:00:46:955
1.60771,8.77056,4.38977,0.04155,0.02344,-0.08469,107910,2016-04-04 00:00:47:055
1.64003,8.78492,4.34548,0.05832,0.0,-0.03009,108010,2016-04-04 00:00:47:155
1.68612,8.59459,4.43825,-0.04927,-0.00799,-0.00985,108110,2016-04-04 00:00:47:255
1.68612,8.59459,4.43825,0.05007,0.0032,-0.04155,108209,2016-04-04 00:00:47:354
1.65739,8.82563,4.21978,-0.05246,-0.00905,-0.00293,108309,2016-04-04 00:00:47:454
1.59693,8.81066,4.30657,-0.01811,-0.01704,-0.00266,108410,2016-04-04 00:00:47:555
1.71784,8.69993,4.43406,-0.01811,-0.01704,-0.00266,108510,2016-04-04 00:00:47:655
1.64841,8.73884,4.35984,0.02264,-0.00719,-0.03036,108610,2016-04-04 00:00:47:755
1.74837,8.69395,4.35565,-0.03302,-0.03143,0.0245,108709,2016-04-04 00:00:47:854
1.74837,8.69395,4.35565,-0.01332,-0.00559,-0.01864,108809,2016-04-04 00:00:47:954
1.75734,8.69694,4.42628,-0.06019,-0.02583,0.02051,108910,2016-04-04 00:00:48:055
1.83276,8.62451,4.48494,-0.02716,-0.01119,-0.01491,109009,2016-04-04 00:00:48:154
1.82199,8.68856,4.52744,-0.02716,-0.01119,-0.01491,109109,2016-04-04 00:00:48:254
1.93212,8.66222,4.52265,-0.02956,-0.01252,-0.01598,109209,2016-04-04 00:00:48:354
1.78967,8.61673,4.53941,-0.01944,0.00399,-0.03356,109311,2016-04-04 00:00:48:456
1.78967,8.61673,4.53941,0.01119,-0.01758,0.02477,109411,2016-04-04 00:00:48:556
1.78428,8.94055,4.67049,0.03888,0.02157,-0.07111,109509,2016-04-04 00:00:48:654
1.68193,8.68557,4.625,0.02743,-0.0024,-0.0277,109611,2016-04-04 00:00:48:756
1.67115,8.67,4.44484,0.02743,-0.0024,-0.0277,109709,2016-04-04 00:00:48:854
2.03747,8.55927,4.59986,0.01305,-0.00639,-0.04155,109809,2016-04-04 00:00:48:954
1.65918,8.68796,4.16292,0.09374,0.04048,-0.10573,109909,2016-04-04 00:00:49:054
1.65918,8.68796,4.16292,-0.06818,0.00799,-0.01198,110010,2016-04-04 00:00:49:155
1.62147,8.8789,4.52863,-0.03675,0.00533,-0.02637,110110,2016-04-04 00:00:49:255
1.63704,8.68018,4.38319,-0.00346,-0.00453,-0.02157,110209,2016-04-04 00:00:49:354
1.68612,8.67958,4.40832,-0.00346,-0.00453,-0.02157,110309,2016-04-04 00:00:49:454
1.66158,8.73345,4.51068,0.03888,-0.00399,-0.03249,110409,2016-04-04 00:00:49:554
1.63883,8.74482,4.34248,0.0253,0.0024,-0.04048,110509,2016-04-04 00:00:49:654
1.63883,8.74482,4.34248,0.00985,-0.00373,-0.02876,110610,2016-04-04 00:00:49:755
1.63763,8.74482,4.35206,0.00639,0.00107,-0.03489,110709,2016-04-04 00:00:49:854
1.67534,8.75679,4.35386,0.0024,-0.00852,-0.02503,110809,2016-04-04 00:00:49:954
1.6496,8.76757,4.30298,0.01997,0.0016,-0.04181,110910,2016-04-04 00:00:50:055
1.60352,8.80587,4.22217,0.01997,0.0016,-0.04181,111010,2016-04-04 00:00:50:155
1.58496,8.79869,4.22217,-0.00426,-0.00186,-0.0261,111109,2016-04-04 00:00:50:254
1.58496,8.79869,4.22217,-0.00346,8.0E-4,-0.02663,111209,2016-04-04 00:00:50:354
1.54965,8.82084,4.0875,-0.00533,-0.0016,-0.02903,111309,2016-04-04 00:00:50:454
1.58017,8.84119,4.16412,-0.0253,-0.00506,-0.01678,111410,2016-04-04 00:00:50:555
1.56461,8.80288,4.2126,-0.01438,-0.00346,-0.02104,111510,2016-04-04 00:00:50:655
1.62806,8.78672,4.3353,-0.01438,-0.00346,-0.02104,111609,2016-04-04 00:00:50:754
1.58676,8.78612,4.30358,-0.01465,-0.00266,-0.0245,111710,2016-04-04 00:00:50:855
1.62746,8.77535,4.26707,-0.01518,-0.00399,-0.01917,111810,2016-04-04 00:00:50:955
1.62746,8.77535,4.26707,-0.04128,-0.0016,-0.02743,111910,2016-04-04 00:00:51:055
1.62626,8.755,4.31315,-0.04101,-0.00586,-0.00772,112009,2016-04-04 00:00:51:154
1.62087,8.72866,4.3377,0.00692,-0.00772,-0.03329,112109,2016-04-04 00:00:51:254
1.61609,8.7538,4.36523,0.00692,-0.00772,-0.03329,112209,2016-04-04 00:00:51:354
1.6101,8.70292,4.34428,-0.01545,-0.00133,-0.02956,112310,2016-04-04 00:00:51:455
1.60052,8.76637,4.41072,-0.01172,-0.00346,-0.01651,112410,2016-04-04 00:00:51:555
1.60052,8.76637,4.41072,-0.03143,-0.01332,-0.01971,112509,2016-04-04 00:00:51:654
1.65619,8.7137,4.40713,-0.01758,0.00479,-0.0253,112609,2016-04-04 00:00:51:754
1.65798,8.72926,4.40054,-0.03302,-2.7E-4,-0.01838,112709,2016-04-04 00:00:51:854
1.70647,8.70771,4.50529,-0.03302,-2.7E-4,-0.01838,112809,2016-04-04 00:00:51:954
1.63045,8.73225,4.42149,-0.01704,-0.01278,-0.0285,112909,2016-04-04 00:00:52:054
1.64661,8.71549,4.31435,0.0024,-0.00613,-0.02663,113009,2016-04-04 00:00:52:154
1.64661,8.71549,4.31435,0.05726,-0.00426,-0.03409,113110,2016-04-04 00:00:52:255
1.68672,8.73884,4.44124,0.0245,5.3E-4,-0.03356,113210,2016-04-04 00:00:52:355
1.60831,8.76637,4.35026,0.02637,-0.0016,-0.03649,113310,2016-04-04 00:00:52:455
1.58257,8.75619,4.27545,0.02637,-0.0016,-0.03649,113409,2016-04-04 00:00:52:554
1.59693,8.78852,4.26647,0.00879,-0.00346,-0.02477,113510,2016-04-04 00:00:52:655
1.59633,8.81605,4.27724,-0.00746,-0.00799,-0.01944,113610,2016-04-04 00:00:52:755
1.59633,8.81605,4.27724,-0.02077,-0.00373,-0.0237,113710,2016-04-04 00:00:52:855
1.59993,8.79211,4.32812,-0.01704,-0.00213,-0.02157,113810,2016-04-04 00:00:52:955
1.60531,8.79091,4.29819,-0.01784,-0.00453,-0.02264,113910,2016-04-04 00:00:53:055
1.59274,8.78852,4.28622,-0.01784,-0.00453,-0.02264,114009,2016-04-04 00:00:53:154
1.6526,8.80707,4.42448,-0.01891,-0.01332,-0.00426,114110,2016-04-04 00:00:53:255
1.62746,8.69933,4.38319,-0.05326,-0.0032,-0.02077,114209,2016-04-04 00:00:53:354
1.62746,8.69933,4.38319,-0.05113,-0.00533,-0.01438,114310,2016-04-04 00:00:53:455
1.64661,8.71729,4.44723,-0.01997,-0.00266,-0.02131,114411,2016-04-04 00:00:53:556
1.6532,8.7137,4.43885,-0.00985,-0.00346,-0.02157,114509,2016-04-04 00:00:53:654
1.61249,8.6718,4.4616,-0.00985,-0.00346,-0.02157,114609,2016-04-04 00:00:53:754
1.64542,8.65683,4.51666,-0.02184,-0.00133,-0.02051,114710,2016-04-04 00:00:53:855
1.65439,8.70651,4.50529,-0.01491,-0.0032,-0.02131,114809,2016-04-04 00:00:53:954
1.65439,8.70651,4.50529,-0.02077,-0.00559,-0.01172,114910,2016-04-04 00:00:54:055
1.67474,8.66701,4.52145,-0.01225,-5.3E-4,-0.02477,115010,2016-04-04 00:00:54:155
1.68193,8.64008,4.66271,-0.03329,-0.00533,-0.01465,115109,2016-04-04 00:00:54:254
1.64003,8.66821,4.56395,-0.03329,-0.00533,-0.01465,115210,2016-04-04 00:00:54:355
1.71964,8.64187,4.5424,-0.01864,-0.00266,-0.02344,115310,2016-04-04 00:00:54:455
1.62267,8.65923,4.52983,-0.01491,-0.00133,-0.02557,115409,2016-04-04 00:00:54:554
1.62267,8.65923,4.52983,0.00186,-0.00586,-0.02237,115510,2016-04-04 00:00:54:655
1.63524,8.6706,4.51307,-0.00213,-0.00559,-0.01811,115610,2016-04-04 00:00:54:755
1.65619,8.67659,4.49631,-0.01598,-0.00266,-0.01811,115710,2016-04-04 00:00:54:855
1.70407,8.62691,4.53881,-0.01598,-0.00266,-0.01811,115809,2016-04-04 00:00:54:954
1.67115,8.6281,4.51127,-0.01598,-0.0024,-0.0229,115909,2016-04-04 00:00:55:054
1.68971,8.65923,4.6238,-0.0024,-0.00266,-0.0245,116009,2016-04-04 00:00:55:154
1.68971,8.65923,4.6238,-0.02876,0.0,-0.0285,116109,2016-04-04 00:00:55:254
1.64661,8.588,4.36463,-0.00586,-0.00533,-0.01997,116209,2016-04-04 00:00:55:354
1.62028,8.65624,4.46878,-0.00852,-0.00213,-0.02157,116309,2016-04-04 00:00:55:454
1.68133,8.64486,4.5424,-0.00852,-0.00213,-0.02157,116409,2016-04-04 00:00:55:554
1.66337,8.64965,4.47177,0.0016,-0.0024,-0.02503,116509,2016-04-04 00:00:55:654
1.64901,8.68078,4.50948,0.02637,2.7E-4,-0.02956,116610,2016-04-04 00:00:55:755
1.64901,8.68078,4.50948,-0.0032,-0.00533,-0.01651,116709,2016-04-04 00:00:55:854
1.68971,8.68197,4.47416,0.00453,-0.00373,-0.01944,116810,2016-04-04 00:00:55:955
1.69031,8.6299,4.50649,0.02929,0.0,-0.03356,116909,2016-04-04 00:00:56:054
1.63464,8.68437,4.3772,0.02929,0.0,-0.03356,117010,2016-04-04 00:00:56:155
1.66277,8.67898,4.458,-0.00879,-0.00559,-0.01704,117109,2016-04-04 00:00:56:254
1.65798,8.72387,4.55736,0.01119,0.0024,-0.03728,117209,2016-04-04 00:00:56:354
1.65798,8.72387,4.55736,-0.03222,-0.00533,-0.02131,117309,2016-04-04 00:00:56:454
1.65858,8.68257,4.42269,-0.02796,-0.00453,-0.02184,117410,2016-04-04 00:00:56:555
1.68073,8.69335,4.44843,-0.0261,-0.00266,-0.02264,117510,2016-04-04 00:00:56:655
1.64242,8.66103,4.49272,-0.0261,-0.00266,-0.02264,117610,2016-04-04 00:00:56:755
1.65918,8.65205,4.47237,-0.00799,-0.00639,-0.02264,117709,2016-04-04 00:00:56:854
1.68612,8.65743,4.52085,-0.01731,-0.00879,-0.01704,117809,2016-04-04 00:00:56:954
1.68612,8.65743,4.52085,-0.01198,-0.00639,-0.02051,117910,2016-04-04 00:00:57:055
1.64781,8.6724,4.5011,-0.01704,-0.00639,-0.02264,118010,2016-04-04 00:00:57:155
1.67235,8.66103,4.50529,-0.01305,-0.00692,-0.0237,118110,2016-04-04 00:00:57:255
1.67415,8.67539,4.49392,-0.01305,-0.00692,-0.0237,118209,2016-04-04 00:00:57:354
1.66816,8.68916,4.64715,-0.00399,-0.00186,-0.02477,118310,2016-04-04 00:00:57:455
1.66457,8.64546,4.51965,-0.02397,-0.01172,-0.02663,118409,2016-04-04 00:00:57:554
1.66457,8.64546,4.51965,-0.02397,-0.00399,-0.02317,118509,2016-04-04 00:00:57:654
1.64123,8.65025,4.5011,-0.01411,-0.00186,-0.01651,118609,2016-04-04 00:00:57:754
1.66337,8.62571,4.60585,-0.00107,-0.00559,-0.02131,118710,2016-04-04 00:00:57:855
1.68253,8.63708,4.51606,-0.00107,-0.00559,-0.02131,118811,2016-04-04 00:00:57:956
1.68312,8.65504,4.5436,-0.00586,-0.00639,-0.02104,118910,2016-04-04 00:00:58:055
1.67415,8.63229,4.53701,-2.7E-4,-0.00133,-0.02344,119009,2016-04-04 00:00:58:154
1.67415,8.63229,4.53701,0.00559,-0.00213,-0.02503,119109,2016-04-04 00:00:58:254
1.67534,8.66402,4.54479,0.01065,-0.00479,-0.0285,119210,2016-04-04 00:00:58:355
1.68911,8.66881,4.45621,0.02344,-0.00479,-0.0245,119309,2016-04-04 00:00:58:454
1.65619,8.71489,4.54958,0.01491,0.00399,-0.03222,119410,2016-04-04 00:00:58:555
1.64063,8.69754,4.47057,0.01491,0.00399,-0.03222,119509,2016-04-04 00:00:58:654
1.64422,8.66701,4.44783,-0.00266,-0.00346,-0.02157,119609,2016-04-04 00:00:58:754
1.64422,8.66701,4.44783,0.01145,-0.00186,-0.03116,119710,2016-04-04 00:00:58:855
1.68432,8.68138,4.48374,0.01012,-2.7E-4,-0.03462,119810,2016-04-04 00:00:58:955
1.63344,8.72687,4.37241,-0.02264,-0.00373,-0.02237,119910,2016-04-04 00:00:59:055
1.64422,8.67719,4.49452,-0.01252,-0.00613,-0.02477,120009,2016-04-04 00:00:59:154
1.62925,8.70711,4.39516,-0.01252,-0.00613,-0.02477,120109,2016-04-04 00:00:59:254
1.68432,8.72926,4.61482,-0.0285,-0.00586,-0.01704,120210,2016-04-04 00:00:59:355
1.67714,8.64427,4.44603,-0.02557,-0.00186,-0.02477,120310,2016-04-04 00:00:59:455
1.67714,8.64427,4.44603,-0.03435,-0.00533,-0.01864,120410,2016-04-04 00:00:59:555
1.67893,8.6706,4.49152,-0.02637,-0.00293,-0.01944,120510,2016-04-04 00:00:59:655
1.66636,8.61434,4.55377,-0.00985,-0.00426,-0.02104,120610,2016-04-04 00:00:59:755
1.64182,8.66462,4.52205,-0.00985,-0.00426,-0.02104,120709,2016-04-04 00:00:59:854
1.69749,8.64367,4.48913,-0.01252,-0.00639,-0.01997,120809,2016-04-04 00:00:59:954
1.61968,8.6718,4.52265,-0.00559,-0.00213,-0.02503,120910,2016-04-04 00:01:00:055
1.61968,8.6718,4.52265,-0.00559,-0.00213,-0.02503,121010,2016-04-04 00:01:00:155
1.69928,8.62451,4.54659,-0.01411,-0.00533,-0.02104,121110,2016-04-04 00:01:00:255
1.64063,8.64427,4.46219,-0.01225,-0.0032,-0.02637,121211,2016-04-04 00:01:00:356
1.71964,8.64067,4.53402,-0.01651,-0.00533,-0.01545,121310,2016-04-04 00:01:00:455
1.67893,8.65504,4.54719,-0.01305,-0.00772,-0.01917,121409,2016-04-04 00:01:00:554
1.65798,8.64247,4.5412,-0.00746,-0.00213,-0.02051,121509,2016-04-04 00:01:00:654
1.65798,8.64247,4.5412,-0.00746,-0.00213,-0.02051,121609,2016-04-04 00:01:00:754
1.67235,8.63888,4.54958,0.00826,-0.00266,-0.0229,121709,2016-04-04 00:01:00:854
1.67055,8.66581,4.52025,-0.00826,-0.00586,-0.0237,121809,2016-04-04 00:01:00:954
1.67834,8.64307,4.52564,-0.00586,-2.7E-4,-0.02184,121910,2016-04-04 00:01:01:055
1.71964,8.63469,4.53761,-0.01012,-0.00266,-0.02184,122009,2016-04-04 00:01:01:154
1.66217,8.63948,4.5406,-0.00879,-0.00373,-0.02131,122110,2016-04-04 00:01:01:255
1.66217,8.63948,4.5406,-0.00879,-0.00373,-0.02131,122209,2016-04-04 00:01:01:354
1.70766,8.61314,4.50469,0.02663,-0.00666,-0.02929,122310,2016-04-04 00:01:01:455
1.66636,8.66521,4.47596,0.00905,0.0,-0.03116,122410,2016-04-04 00:01:01:555
1.68971,8.64307,4.4993,-0.00533,-0.00613,-0.02024,122509,2016-04-04 00:01:01:654
1.6526,8.68317,4.48195,0.01917,-0.00133,-0.02876,122610,2016-04-04 00:01:01:755
1.6526,8.68317,4.48195,0.01917,-0.00133,-0.02876,122710,2016-04-04 00:01:01:855
1.64063,8.68078,4.49392,0.01119,-0.00426,-0.02823,122810,2016-04-04 00:01:01:955
1.66457,8.67419,4.4598,0.00399,-0.0032,-0.02184,122909,2016-04-04 00:01:02:054
1.63943,8.67599,4.42568,0.00213,-5.3E-4,-0.02637,123009,2016-04-04 00:01:02:154
1.65798,8.68257,4.45262,0.0016,-0.00533,-0.02237,123110,2016-04-04 00:01:02:255
1.67115,8.69574,4.42508,0.01065,-5.3E-4,-0.02983,123209,2016-04-04 00:01:02:354
1.62566,8.69873,4.44783,-0.02716,-0.00293,-0.01971,123310,2016-04-04 00:01:02:455
1.62566,8.69873,4.44783,-0.02716,-0.00293,-0.01971,123411,2016-04-04 00:01:02:556
1.64242,8.73046,4.43227,-0.01758,-0.00559,-0.01917,123509,2016-04-04 00:01:02:654
1.63225,8.66641,4.46638,-0.03382,-0.00559,-0.02423,123609,2016-04-04 00:01:02:754
1.68851,8.67419,4.51187,-0.01811,-0.00746,-0.01997,123709,2016-04-04 00:01:02:854
1.68013,8.68796,4.49631,-0.01545,-0.00905,-0.01305,123809,2016-04-04 00:01:02:954
1.65499,8.65983,4.5412,-0.02264,-0.00107,-0.02184,123909,2016-04-04 00:01:03:054
1.65499,8.65983,4.5412,-0.02264,-0.00107,-0.02184,124010,2016-04-04 00:01:03:155
1.65439,8.67778,4.49033,-0.01651,-0.00586,-0.01838,124109,2016-04-04 00:01:03:254
1.6933,8.64187,4.52624,-0.00852,-0.00373,-0.0261,124209,2016-04-04 00:01:03:354
1.61668,8.67539,4.46878,-0.02024,-0.00186,-0.02317,124310,2016-04-04 00:01:03:455
1.68911,8.61793,4.51008,-0.01891,-0.0024,-0.02503,124411,2016-04-04 00:01:03:556
1.6939,8.63648,4.50409,-0.01518,-0.00426,-0.02184,124509,2016-04-04 00:01:03:654
1.6939,8.63648,4.50409,-0.01518,-0.00426,-0.02184,124609,2016-04-04 00:01:03:754
1.71485,8.62631,4.5837,-0.00559,-0.00293,-0.02397,124710,2016-04-04 00:01:03:855
1.68911,8.64127,4.51606,-0.00373,-0.00533,-0.02077,124809,2016-04-04 00:01:03:954
1.68731,8.6694,4.5831,-0.01305,-8.0E-4,-0.0277,124910,2016-04-04 00:01:04:055
1.76453,8.5491,4.54419,-0.01305,-8.0E-4,-0.0277,125010,2016-04-04 00:01:04:155
1.53408,8.62451,4.57472,-0.04661,0.01704,-0.05167,125110,2016-04-04 00:01:04:255
1.53408,8.62451,4.57472,-0.03435,-0.01678,0.00772,125210,2016-04-04 00:01:04:355
1.56042,8.64367,4.55497,-0.02077,-0.03968,0.03941,125309,2016-04-04 00:01:04:454
1.78847,8.54131,4.65792,-0.03462,-0.01864,-0.00746,125410,2016-04-04 00:01:04:555
1.73939,8.51558,4.69084,-0.03462,-0.01864,-0.00746,125510,2016-04-04 00:01:04:655
1.97163,8.53353,4.77224,-0.05406,-0.03675,0.02077,125609,2016-04-04 00:01:04:754
1.8573,8.52875,4.6657,0.02077,0.00293,-0.05167,125710,2016-04-04 00:01:04:855
1.8573,8.52875,4.6657,-0.00346,-0.01119,-0.01864,125809,2016-04-04 00:01:04:954
1.79386,8.55209,4.64116,-0.02104,-0.00426,-0.0245,125909,2016-04-04 00:01:05:054
1.82977,8.50001,4.76267,0.07004,0.00533,-0.04368,126009,2016-04-04 00:01:05:154
1.77949,8.64786,4.52384,0.07004,0.00533,-0.04368,126110,2016-04-04 00:01:05:255
1.76752,8.63349,4.51367,0.03356,0.00586,-0.03489,126209,2016-04-04 00:01:05:354
1.82438,8.55927,4.56036,-0.02903,0.00186,-0.02477,126309,2016-04-04 00:01:05:454
1.82438,8.55927,4.56036,-0.01438,-0.00479,-0.02823,126409,2016-04-04 00:01:05:554
1.75196,8.62332,4.50948,-0.03675,-0.00692,-0.01784,126509,2016-04-04 00:01:05:654
1.80942,8.5491,4.63458,0.04314,-0.00426,-0.04394,126610,2016-04-04 00:01:05:755
1.73879,8.59159,4.61842,0.04314,-0.00426,-0.04394,126709,2016-04-04 00:01:05:854
1.54546,8.81066,4.23893,0.16751,-0.00826,-0.07217,126809,2016-04-04 00:01:05:954
1.74777,8.68437,4.40294,-0.0285,-0.01465,0.00613,126909,2016-04-04 00:01:06:054
1.74777,8.68437,4.40294,-0.0506,0.0,-0.00932,127010,2016-04-04 00:01:06:155
1.83216,8.59638,4.48853,0.00985,-0.01731,0.00613,127109,2016-04-04 00:01:06:254
1.88005,8.64606,4.29041,-0.03435,0.00746,-0.02583,127211,2016-04-04 00:01:06:356
1.84593,8.62152,4.49392,-0.03435,0.00746,-0.02583,127310,2016-04-04 00:01:06:455
1.9818,8.72088,4.48973,0.01971,0.00666,-0.03862,127410,2016-04-04 00:01:06:555
1.49398,8.68676,4.59627,-0.01438,0.049,-0.155,127509,2016-04-04 00:01:06:654
1.49398,8.68676,4.59627,-0.00453,-0.00639,-0.01198,127610,2016-04-04 00:01:06:755
1.77051,8.68437,4.41371,-0.03595,0.00186,-0.0277,127709,2016-04-04 00:01:06:854
1.61249,8.67,4.45621,-0.03542,-0.01065,-0.01065,127809,2016-04-04 00:01:06:954
1.71844,8.70532,4.52444,-0.03542,-0.01065,-0.01065,127909,2016-04-04 00:01:07:054
1.58855,8.60895,4.60405,-0.0285,-0.00107,-0.02823,128010,2016-04-04 00:01:07:155
1.77171,8.63948,4.68485,-0.03249,-0.01278,0.00613,128109,2016-04-04 00:01:07:254
1.71185,8.57543,4.63158,-0.02743,2.7E-4,-0.02131,128209,2016-04-04 00:01:07:354
1.71185,8.57543,4.63158,0.03382,-0.00932,-0.0253,128309,2016-04-04 00:01:07:454
1.68612,8.68796,4.54719,0.00826,-0.01012,-0.01358,128409,2016-04-04 00:01:07:554
1.60232,8.63469,4.48853,0.00826,-0.01012,-0.01358,128509,2016-04-04 00:01:07:654
1.8974,8.66462,4.10785,0.09348,-0.06445,0.05992,128609,2016-04-04 00:01:07:754
1.79445,8.60356,4.42927,-0.049,0.00959,-0.03435,128710,2016-04-04 00:01:07:855
1.81959,8.67359,4.33949,-0.01758,-0.01704,0.00826,128809,2016-04-04 00:01:07:954
1.81959,8.67359,4.33949,-0.01465,0.00533,-0.03356,128909,2016-04-04 00:01:08:054
1.74956,8.65504,4.38319,-0.03329,-0.00746,-0.01172,129009,2016-04-04 00:01:08:154
1.7328,8.66761,4.37062,-0.03196,-0.00746,-0.01678,129109,2016-04-04 00:01:08:254
1.77051,8.64247,4.48853,-0.03196,-0.00746,-0.01678,129209,2016-04-04 00:01:08:354
1.80463,8.65384,4.49033,-0.01278,-8.0E-4,-0.02317,129309,2016-04-04 00:01:08:454
1.75615,8.65085,4.45202,0.00107,-5.3E-4,-0.02983,129409,2016-04-04 00:01:08:554
1.75615,8.65085,4.45202,-0.01252,-0.00613,-0.02157,129509,2016-04-04 00:01:08:654
1.80643,8.61853,4.50469,-0.00426,0.0024,-0.02823,129610,2016-04-04 00:01:08:755
1.83216,8.5904,4.44663,-0.03116,-0.00826,-0.01811,129710,2016-04-04 00:01:08:855
1.79984,8.65384,4.48614,-0.03116,-0.00826,-0.01811,129810,2016-04-04 00:01:08:955
1.80044,8.62392,4.4993,-0.01252,-0.00426,-0.01944,129909,2016-04-04 00:01:09:054
1.79326,8.63409,4.48254,-0.00985,-0.00613,-0.02663,130009,2016-04-04 00:01:09:154
1.79326,8.63409,4.48254,0.01092,-0.00107,-0.02583,130109,2016-04-04 00:01:09:254
1.77111,8.63589,4.51606,-0.00879,-0.0032,-0.02157,130209,2016-04-04 00:01:09:354
1.78129,8.65265,4.52325,0.00133,-0.00186,-0.0245,130310,2016-04-04 00:01:09:455
1.78727,8.62212,4.45082,0.00133,-0.00186,-0.0245,130410,2016-04-04 00:01:09:555
1.82977,8.6305,4.63996,0.00213,-5.3E-4,-0.02796,130510,2016-04-04 00:01:09:655
1.79805,8.63469,4.47117,0.0016,-0.00266,-0.0229,130609,2016-04-04 00:01:09:754
1.79805,8.63469,4.47117,2.7E-4,-0.00533,-0.01811,130712,2016-04-04 00:01:09:857
1.80523,8.6712,4.43765,0.00746,-0.00213,-0.02503,130809,2016-04-04 00:01:09:954
1.79026,8.71549,4.40174,0.03222,0.00107,-0.03462,130909,2016-04-04 00:01:10:054
1.72981,8.68078,4.39396,0.03222,0.00107,-0.03462,131010,2016-04-04 00:01:10:155
1.80224,8.68497,4.41251,0.00506,-0.00639,-0.02024,131110,2016-04-04 00:01:10:255
1.74118,8.70891,4.34368,0.00506,-2.7E-4,-0.03249,131209,2016-04-04 00:01:10:354
1.74118,8.70891,4.34368,-0.0032,-8.0E-4,-0.02423,131310,2016-04-04 00:01:10:455
1.78129,8.70771,4.37062,-0.01385,-0.00373,-0.02237,131409,2016-04-04 00:01:10:554
1.76932,8.7137,4.37301,-0.03063,-0.00826,-0.01891,131509,2016-04-04 00:01:10:654
1.77769,8.69514,4.44484,-0.03063,-0.00826,-0.01891,131609,2016-04-04 00:01:10:754
1.74717,8.73764,4.47357,-0.02051,-0.00905,-0.01411,131709,2016-04-04 00:01:10:854
1.76872,8.68078,4.48554,-0.01811,-0.00213,-0.02823,131809,2016-04-04 00:01:10:954
1.76872,8.68078,4.48554,-0.03222,-0.00959,-0.01119,131910,2016-04-04 00:01:11:055
1.75675,8.66581,4.50649,-0.01332,-0.00133,-0.02637,132010,2016-04-04 00:01:11:155
1.82678,8.64606,4.55377,0.00186,-0.0032,-0.02317,132109,2016-04-04 00:01:11:254
1.79565,8.65863,4.46938,0.00186,-0.0032,-0.02317,132210,2016-04-04 00:01:11:355
1.77949,8.65444,4.461,-0.01358,-0.00346,-0.02237,132311,2016-04-04 00:01:11:456
1.79685,8.65444,4.53402,-0.01278,-0.00453,-0.01864,132409,2016-04-04 00:01:11:554
1.79685,8.65444,4.53402,-0.00186,-8.0E-4,-0.02184,132510,2016-04-04 00:01:11:655
1.79086,8.66282,4.45202,-0.00905,-0.00186,-0.02131,132609,2016-04-04 00:01:11:754
1.80104,8.64845,4.46279,-0.00346,-0.00399,-0.02397,132710,2016-04-04 00:01:11:855
1.78967,8.69335,4.65313,-0.00346,-0.00399,-0.02397,132810,2016-04-04 00:01:11:955
1.79685,8.65384,4.51008,-0.0245,-0.00692,-0.01704,132910,2016-04-04 00:01:12:055
1.79505,8.64427,4.51068,-0.02104,-0.00533,-0.02557,133009,2016-04-04 00:01:12:154
1.79505,8.64427,4.51068,-0.01545,-5.3E-4,-0.02477,133109,2016-04-04 00:01:12:254
1.80164,8.61374,4.55257,-0.00399,-0.00293,-0.02264,133210,2016-04-04 00:01:12:355
1.76572,8.6718,4.49631,-0.00692,-0.00719,-0.01731,133309,2016-04-04 00:01:12:454
1.78667,8.65564,4.47297,-0.00692,-0.00719,-0.01731,133410,2016-04-04 00:01:12:555
1.80942,8.65025,4.50589,-0.00852,-0.00293,-0.02503,133510,2016-04-04 00:01:12:655
1.82259,8.63768,4.52205,-0.00506,-0.0032,-0.02583,133609,2016-04-04 00:01:12:754
1.82259,8.63768,4.52205,0.00399,-0.00506,-0.02637,133710,2016-04-04 00:01:12:855
1.78488,8.64247,4.51546,0.00533,-0.00479,-0.0253,133809,2016-04-04 00:01:12:954
1.77051,8.66761,4.43466,0.03196,-0.00586,-0.02477,133910,2016-04-04 00:01:13:055
1.80283,8.68078,4.5406,0.03196,-0.00586,-0.02477,134010,2016-04-04 00:01:13:155
1.7771,8.70592,4.44364,0.00985,0.0016,-0.03515,134109,2016-04-04 00:01:13:254
1.77769,8.67599,4.45621,0.0024,-0.00133,-0.02583,134210,2016-04-04 00:01:13:355
1.77769,8.67599,4.45621,0.01358,2.7E-4,-0.02663,134309,2016-04-04 00:01:13:454
1.7771,8.68796,4.43646,0.02104,-0.00107,-0.02929,134409,2016-04-04 00:01:13:554
1.78248,8.70472,4.34009,0.0,-0.00613,-0.03249,134509,2016-04-04 00:01:13:654
1.73161,8.70292,4.40593,0.0,-0.00613,-0.03249,134609,2016-04-04 00:01:13:754
1.78727,8.71729,4.38797,0.00533,-0.00399,-0.0221,134709,2016-04-04 00:01:13:854
1.74477,8.70233,4.35864,-0.00692,-0.00506,-0.03063,134809,2016-04-04 00:01:13:954
1.74477,8.70233,4.35864,-0.01545,-2.7E-4,-0.02184,134909,2016-04-04 00:01:14:054
1.70766,8.76577,4.48554,-0.04128,-0.00533,-0.01571,135010,2016-04-04 00:01:14:155
1.81361,8.65983,4.36882,-0.0285,-0.00586,-0.02184,135110,2016-04-04 00:01:14:255
1.75136,8.70472,4.40354,-0.0285,-0.00586,-0.02184,135210,2016-04-04 00:01:14:355
1.80523,8.6694,4.47237,-0.04128,-0.00346,-0.01545,135314,2016-04-04 00:01:14:459
1.75315,8.65504,4.45681,-0.01225,-0.00266,-0.01731,135410,2016-04-04 00:01:14:555
1.75315,8.65504,4.45681,-0.01332,-0.00559,-0.01704,135510,2016-04-04 00:01:14:655
1.78787,8.64546,4.47476,-0.01438,-0.0032,-0.02184,135610,2016-04-04 00:01:14:755
1.78069,8.67539,4.48494,-0.01571,-0.00266,-0.02344,135710,2016-04-04 00:01:14:855
1.79565,8.65624,4.52564,-0.01571,-0.00266,-0.02344,135810,2016-04-04 00:01:14:955
1.78727,8.63948,4.48494,-0.00959,-0.00586,-0.02344,135910,2016-04-04 00:01:15:055
1.77769,8.66521,4.67887,-0.00879,-5.3E-4,-0.0253,136011,2016-04-04 00:01:15:156
1.77769,8.6299,4.52145,-0.02317,-0.00559,-0.01944,136109,2016-04-04 00:01:15:254
1.79984,8.6299,4.52145,-0.02237,-0.00506,-0.02503,136209,2016-04-04 00:01:15:354
1.79206,8.66162,4.47177,-0.01598,-0.00373,-0.02397,136310,2016-04-04 00:01:15:455
1.80044,8.61434,4.53941,-0.01598,-0.00373,-0.02397,136410,2016-04-04 00:01:15:555
1.78967,8.64127,4.48554,-0.00985,-0.00959,-0.01704,136510,2016-04-04 00:01:15:655
1.80523,8.64965,4.48913,-0.00506,-0.00399,-0.02237,136610,2016-04-04 00:01:15:755
1.80523,8.64965,4.48913,-0.00666,-0.00213,-0.02503,136711,2016-04-04 00:01:15:856
1.7765,8.65564,4.48434,-0.0024,-0.00186,-0.02024,136809,2016-04-04 00:01:15:954
1.78727,8.64187,4.51606,0.00692,-0.0016,-0.02823,136909,2016-04-04 00:01:16:054
1.76632,8.65444,4.47776,0.00826,-0.0024,-0.0269,137009,2016-04-04 00:01:16:154
1.79146,8.65025,4.40294,0.00826,-0.0024,-0.0269,137110,2016-04-04 00:01:16:255
1.79026,8.69933,4.53043,0.02956,-0.00799,-0.0261,137210,2016-04-04 00:01:16:355
1.75076,8.71789,4.43346,0.01172,5.3E-4,-0.03542,137309,2016-04-04 00:01:16:454
1.75076,8.71789,4.43346,-2.7E-4,-0.00479,-0.0253,137409,2016-04-04 00:01:16:554
1.76752,8.69574,4.41491,0.00799,-0.00373,-0.02876,137509,2016-04-04 00:01:16:654
1.81062,8.66701,4.4197,0.01225,-0.0024,-0.03302,137610,2016-04-04 00:01:16:755
1.7334,8.71609,4.35386,0.01225,-0.0024,-0.03302,137710,2016-04-04 00:01:16:855
1.75136,8.7119,4.38498,-0.01411,-0.00559,-0.01838,137809,2016-04-04 00:01:16:954
1.76393,8.68377,4.35984,-0.01838,-0.00426,-0.01731,137909,2016-04-04 00:01:17:054
1.76393,8.68377,4.35984,-0.02796,-0.00186,-0.02024,138009,2016-04-04 00:01:17:154
1.76273,8.67958,4.4197,-0.03569,-0.00399,-0.01917,138110,2016-04-04 00:01:17:255
1.75854,8.66881,4.32273,-0.03116,-0.01012,-0.01545,138209,2016-04-04 00:01:17:354
1.75435,8.66521,4.42867,-0.03116,-0.01012,-0.01545,138309,2016-04-04 00:01:17:454
1.80822,8.66282,4.43825,-0.02104,-0.00613,-0.01438,138409,2016-04-04 00:01:17:554
1.77291,8.68856,4.461,-0.02184,-0.00453,-0.01997,138509,2016-04-04 00:01:17:654
1.77291,8.68856,4.461,5.3E-4,-0.00293,-0.02344,138610,2016-04-04 00:01:17:755
1.81421,8.65324,4.44723,-0.01172,-0.00213,-0.0277,138709,2016-04-04 00:01:17:854
1.75854,8.65324,4.48254,-0.01518,-0.00559,-0.01784,138809,2016-04-04 00:01:17:954
1.84473,8.63768,4.49571,-0.01518,-0.00559,-0.01784,138910,2016-04-04 00:01:18:055
1.78607,8.63828,4.48135,-0.00799,-0.00533,-0.0245,139010,2016-04-04 00:01:18:155
1.78129,8.65504,4.45322,-0.01545,-0.00506,-0.02264,139109,2016-04-04 00:01:18:254
1.78129,8.65504,4.45322,5.3E-4,-0.01039,-0.01704,139210,2016-04-04 00:01:18:355
1.78368,8.66342,4.55856,-0.01332,0.0,-0.0269,139310,2016-04-04 00:01:18:455
1.77291,8.63589,4.53103,-0.00826,-0.0032,-0.02397,139410,2016-04-04 00:01:18:555
1.76572,8.63589,4.53342,-0.00826,-0.0032,-0.02397,139510,2016-04-04 00:01:18:655
1.80583,8.63469,4.59208,0.00639,2.7E-4,-0.02876,139609,2016-04-04 00:01:18:754
1.80643,8.66641,4.44065,0.02876,0.00213,-0.03196,139710,2016-04-04 00:01:18:855
1.80643,8.66641,4.44065,0.01012,0.0024,-0.02503,139810,2016-04-04 00:01:18:955
1.79685,8.66761,4.46578,0.01651,-0.00186,-0.02983,139910,2016-04-04 00:01:19:055
1.76752,8.70412,4.42269,0.00666,0.0032,-0.02423,140009,2016-04-04 00:01:19:154
1.76692,8.70891,4.38259,0.00666,0.0032,-0.02423,140109,2016-04-04 00:01:19:254
1.79026,8.72148,4.53522,0.01625,0.0024,-0.02929,140210,2016-04-04 00:01:19:355
1.72802,8.7119,4.36403,-0.01678,-0.00426,-0.02397,140310,2016-04-04 00:01:19:455
1.72802,8.7119,4.36403,-0.00639,-0.0032,-0.01864,140409,2016-04-04 00:01:19:554
1.73161,8.74243,4.33829,-0.02503,-0.0024,-0.01971,140510,2016-04-04 00:01:19:655
1.74118,8.69754,4.38259,-0.03063,-0.00879,-0.01598,140610,2016-04-04 00:01:19:755
1.76153,8.67599,4.45501,-0.03063,-0.00879,-0.01598,140710,2016-04-04 00:01:19:855
1.7747,8.69215,4.44124,-0.0269,-0.00826,-0.01571,140809,2016-04-04 00:01:19:954
1.76213,8.66581,4.46878,-0.03009,-0.00826,-0.0229,140909,2016-04-04 00:01:20:054
1.76213,8.66581,4.46878,-0.02503,-0.01092,-0.02024,141010,2016-04-04 00:01:20:155
1.78129,8.6706,4.44962,-0.02503,-0.00959,-0.01891,141109,2016-04-04 00:01:20:254
1.79146,8.64786,4.46938,0.01518,0.00186,-0.02184,141209,2016-04-04 00:01:20:354
1.82378,8.63409,4.4598,0.01518,0.00186,-0.02184,141309,2016-04-04 00:01:20:454
1.79625,8.6311,4.53282,-0.01305,-0.00799,-0.02743,141410,2016-04-04 00:01:20:555
1.82318,8.63648,4.55736,-0.0245,-0.01039,-0.01758,141509,2016-04-04 00:01:20:654
1.82318,8.63648,4.55736,-0.00213,-2.7E-4,-0.02184,141609,2016-04-04 00:01:20:754
1.86448,8.61314,4.56574,0.00399,-0.00639,-0.02344,141710,2016-04-04 00:01:20:855
1.82259,8.62511,4.48374,-0.00985,-0.00533,-0.0237,141809,2016-04-04 00:01:20:954
1.82678,8.60895,4.52564,-0.00985,-0.00533,-0.0237,141909,2016-04-04 00:01:21:054
1.80224,8.6287,4.52265,-0.00586,-0.00213,-0.0229,142009,2016-04-04 00:01:21:154
1.81421,8.63529,4.54898,-0.00932,-0.00426,-0.0253,142109,2016-04-04 00:01:21:254
1.81421,8.63529,4.54898,-0.01065,-0.00586,-0.02716,142209,2016-04-04 00:01:21:354
1.8148,8.63888,4.51427,0.00746,-0.00533,-0.02317,142309,2016-04-04 00:01:21:454
1.7753,8.67599,4.54599,0.01119,0.00426,-0.03489,142409,2016-04-04 00:01:21:554
1.78967,8.65564,4.5023,0.01119,0.00426,-0.03489,142510,2016-04-04 00:01:21:655
1.78488,8.65683,4.48314,0.00666,-0.0032,-0.0245,142609,2016-04-04 00:01:21:754
1.80463,8.66103,4.49811,0.01651,0.00186,-0.03302,142709,2016-04-04 00:01:21:854
1.80463,8.66103,4.49811,0.02264,-2.7E-4,-0.03489,142809,2016-04-04 00:01:21:954
1.75196,8.70292,4.39396,5.3E-4,-0.0024,-0.02583,142910,2016-04-04 00:01:22:055
1.76572,8.72208,4.4185,0.00879,-0.00479,-0.0285,143009,2016-04-04 00:01:22:154
1.75675,8.70831,4.38199,0.00879,-0.00479,-0.0285,143109,2016-04-04 00:01:22:254
1.76932,8.70891,4.39695,0.00639,0.00107,-0.0253,143209,2016-04-04 00:01:22:354
1.73639,8.70053,4.32991,-0.00213,-0.00107,-0.0245,143309,2016-04-04 00:01:22:454
1.80643,8.69514,4.37481,-0.01545,-0.00213,-0.0221,143409,2016-04-04 00:01:22:554
1.80643,8.69514,4.37481,-0.03542,-0.00399,-0.01811,143509,2016-04-04 00:01:22:654
1.74418,8.7143,4.39336,-0.03595,-0.00719,-0.01784,143609,2016-04-04 00:01:22:754
1.7771,8.66821,4.46878,-0.03595,-0.00719,-0.01784,143709,2016-04-04 00:01:22:854
1.79086,8.65384,4.4616,-0.01731,-0.00586,-0.0229,143810,2016-04-04 00:01:22:955
1.81121,8.6718,4.44244,-0.01411,-0.00399,-0.01971,143912,2016-04-04 00:01:23:057
1.81121,8.6718,4.44244,-0.02184,-0.0016,-0.02157,144010,2016-04-04 00:01:23:155
1.77949,8.65145,4.46818,-0.01704,-0.00559,-0.01971,144109,2016-04-04 00:01:23:254
1.79206,8.67719,4.52384,-0.01145,-0.00453,-0.02344,144209,2016-04-04 00:01:23:354
1.76513,8.65145,4.48434,-0.01145,-0.00453,-0.02344,144309,2016-04-04 00:01:23:454
1.77291,8.67778,4.66809,-0.00373,-0.00266,-0.0261,144410,2016-04-04 00:01:23:555
1.83276,8.6287,4.54001,-0.01811,-0.0024,-0.02317,144509,2016-04-04 00:01:23:654
1.83276,8.6287,4.54001,-0.01944,-0.0016,-0.0237,144610,2016-04-04 00:01:23:755
1.80762,8.62751,4.51427,-0.01305,-0.00453,-0.02104,144710,2016-04-04 00:01:23:855
1.78667,8.62691,4.56395,0.00426,-0.0032,-0.02184,144810,2016-04-04 00:01:23:955
1.76991,8.65444,4.4993,0.00426,-0.0032,-0.02184,144911,2016-04-04 00:01:24:056
1.77769,8.66881,4.45381,0.01278,-0.00506,-0.02663,145010,2016-04-04 00:01:24:155
1.76692,8.64367,4.47716,0.00932,-0.0032,-0.02131,145111,2016-04-04 00:01:24:256
1.76692,8.64367,4.47716,0.01198,0.00133,-0.02983,145210,2016-04-04 00:01:24:355
1.78667,8.68976,4.44543,-8.0E-4,-0.00559,-0.02077,145309,2016-04-04 00:01:24:454
1.78129,8.67958,4.43107,0.00799,0.0,-0.03222,145409,2016-04-04 00:01:24:554
1.80822,8.66581,4.39216,0.00799,0.0,-0.03222,145509,2016-04-04 00:01:24:654
1.72442,8.69873,4.36523,-0.01278,-0.00426,-0.01385,145610,2016-04-04 00:01:24:755
1.79326,8.70053,4.39635,-0.00533,-0.00426,-0.02051,145709,2016-04-04 00:01:24:854
1.76812,8.70771,4.48075,-0.01598,-0.00399,-0.0261,145809,2016-04-04 00:01:24:954
1.76812,8.70771,4.48075,-0.00453,-0.00426,-0.02743,145909,2016-04-04 00:01:25:054
1.75495,8.70292,4.4173,-0.0245,-0.0024,-0.01704,146009,2016-04-04 00:01:25:154
1.78607,8.67958,4.41132,-0.01838,-0.00852,-0.02104,146109,2016-04-04 00:01:25:254
1.76991,8.68916,4.48075,-0.01838,-0.00852,-0.02104,146210,2016-04-04 00:01:25:355
1.80403,8.64187,4.5029,-0.02503,-0.00799,-0.01971,146309,2016-04-04 00:01:25:454
1.78847,8.6281,4.4598,-0.0245,-0.00719,-0.02264,146409,2016-04-04 00:01:25:554
1.78847,8.6281,4.4598,0.00107,-0.00639,-0.01838,146509,2016-04-04 00:01:25:654
1.76932,8.6694,4.50768,-0.01838,-0.0032,-0.03249,146610,2016-04-04 00:01:25:755
1.75256,8.65025,4.52863,-0.0245,-0.00533,-0.01971,146710,2016-04-04 00:01:25:855
1.80942,8.65504,4.54779,-0.0245,-0.00533,-0.01971,146810,2016-04-04 00:01:25:955
1.85072,8.64367,4.55736,-0.00453,-0.00426,-0.02317,146909,2016-04-04 00:01:26:054
1.80283,8.65923,4.4999,0.00453,0.0032,-0.02663,147009,2016-04-04 00:01:26:154
1.80283,8.65923,4.4999,-0.01625,-0.00506,-0.01997,147110,2016-04-04 00:01:26:255
1.82259,8.62272,4.49212,-0.01172,8.0E-4,-0.0269,147210,2016-04-04 00:01:26:355
1.77291,8.65025,4.50768,-0.00799,-0.0024,-0.02264,147309,2016-04-04 00:01:26:454
1.78907,8.63768,4.54539,-0.00799,-0.0024,-0.02264,147409,2016-04-04 00:01:26:554
1.77949,8.63828,4.45262,0.01012,0.00293,-0.02423,147510,2016-04-04 00:01:26:655
1.84653,8.63229,4.49152,0.03489,-5.3E-4,-0.03169,147610,2016-04-04 00:01:26:755
1.84653,8.63229,4.49152,0.00586,5.3E-4,-0.02929,147710,2016-04-04 00:01:26:855
1.78967,8.66462,4.46758,0.00559,-8.0E-4,-0.02663,147809,2016-04-04 00:01:26:954
1.80044,8.63589,4.49332,0.00719,-0.00266,-0.02743,147910,2016-04-04 00:01:27:055
1.80702,8.68916,4.43466,0.00719,-0.00266,-0.02743,148009,2016-04-04 00:01:27:154
1.78607,8.70173,4.39097,0.01278,-0.00373,-0.0277,148109,2016-04-04 00:01:27:254
1.74537,8.68676,4.39695,-0.00107,-0.00293,-0.02477,148209,2016-04-04 00:01:27:354
1.74537,8.68676,4.39695,0.00266,2.7E-4,-0.0269,148309,2016-04-04 00:01:27:454
1.75854,8.70352,4.376,-8.0E-4,-0.00453,-0.02423,148411,2016-04-04 00:01:27:556
1.75914,8.7137,4.41072,-0.01172,-0.00479,-0.0245,148509,2016-04-04 00:01:27:654
1.80702,8.68018,4.28143,-0.01172,-0.00479,-0.0245,148611,2016-04-04 00:01:27:756
1.70288,8.69395,4.39815,-0.03169,-0.00613,-0.01598,148710,2016-04-04 00:01:27:855
1.79445,8.67539,4.42448,-0.03409,-0.00586,-0.01518,148809,2016-04-04 00:01:27:954
1.79445,8.67539,4.42448,-0.03888,-0.00799,-0.01891,148910,2016-04-04 00:01:28:055
1.76213,8.70292,4.51487,-0.01305,-0.00479,-0.02077,149010,2016-04-04 00:01:28:155
1.74178,8.65444,4.43107,-0.02583,-0.00959,-0.00613,149110,2016-04-04 00:01:28:255
1.79206,8.63888,4.49511,-0.02583,-0.00959,-0.00613,149210,2016-04-04 00:01:28:355
1.72802,8.67479,4.45561,-0.00852,-0.00266,-0.0253,149309,2016-04-04 00:01:28:454
1.80822,8.65444,4.51666,-0.0253,-0.01012,-0.01625,149410,2016-04-04 00:01:28:555
1.80822,8.65444,4.51666,-0.00959,-0.00399,-0.0229,149509,2016-04-04 00:01:28:654
1.78308,8.63349,4.45681,-0.01145,-0.01012,-0.01997,149609,2016-04-04 00:01:28:754
1.77051,8.6311,4.53641,-0.00985,-0.00293,-0.03116,149710,2016-04-04 00:01:28:855
1.76453,8.65564,4.51187,-0.00985,-0.00293,-0.03116,149810,2016-04-04 00:01:28:955
1.79745,8.61494,4.54419,-0.01465,-0.00559,-0.01997,149909,2016-04-04 00:01:29:054
1.7771,8.64367,4.55198,-2.7E-4,5.3E-4,-0.02743,150009,2016-04-04 00:01:29:154
